; Refractive index spectrum of AZ BARLi II Bottom Antireflection Coating
; Measured with VASE, Q. Wang, NIST, April 2015
;
; lambda/nm    n        k
251.34 	1.646170 	0.170870 
252.93 	1.649270 	0.171890 
254.52 	1.653380 	0.171880 
256.11 	1.658750 	0.170250 
257.70 	1.664740 	0.166890 
259.29 	1.670760 	0.161460 
260.88 	1.676280 	0.153660 
262.47 	1.680500 	0.143760 
264.06 	1.682770 	0.132200 
265.65 	1.682760 	0.119510 
267.24 	1.680190 	0.106330 
268.83 	1.674870 	0.093400 
270.42 	1.667150 	0.081430 
272.01 	1.657590 	0.071150 
273.60 	1.646500 	0.062990 
275.19 	1.634230 	0.057270 
276.78 	1.621790 	0.054150 
278.37 	1.610060 	0.053470 
279.96 	1.599350 	0.054430 
281.55 	1.589730 	0.056230 
283.14 	1.581060 	0.058520 
284.73 	1.573150 	0.061020 
286.32 	1.565830 	0.063620 
287.91 	1.558920 	0.066220 
289.50 	1.552320 	0.068880 
291.09 	1.545970 	0.071650 
292.68 	1.539850 	0.074550 
294.28 	1.533950 	0.077590 
295.87 	1.528240 	0.080790 
297.46 	1.522670 	0.084220 
299.05 	1.517210 	0.087880 
300.64 	1.511820 	0.091780 
302.23 	1.506500 	0.095940 
303.82 	1.501250 	0.100420 
305.41 	1.496090 	0.105250 
307.00 	1.491010 	0.110460 
308.59 	1.486020 	0.116050 
310.18 	1.481180 	0.122110 
311.77 	1.476580 	0.128750 
313.37 	1.472310 	0.136010 
314.96 	1.468430 	0.143780 
316.55 	1.465010 	0.151940 
318.14 	1.462120 	0.160520 
319.73 	1.459850 	0.169600 
321.32 	1.458260 	0.179220 
322.91 	1.457410 	0.189250 
324.50 	1.457340 	0.199550 
326.10 	1.458140 	0.210000 
327.69 	1.459900 	0.220480 
329.28 	1.462710 	0.230900 
330.87 	1.466530 	0.241160 
332.46 	1.471280 	0.251150 
334.05 	1.476870 	0.260780 
335.64 	1.483180 	0.269940 
337.24 	1.490120 	0.278520 
338.83 	1.497660 	0.286390 
340.42 	1.505950 	0.293390 
342.01 	1.515140 	0.299360 
343.60 	1.525080 	0.304250 
345.19 	1.535210 	0.308140 
346.79 	1.544980 	0.311120 
348.38 	1.554120 	0.313300 
349.97 	1.562770 	0.314860 
351.56 	1.571120 	0.315930 
353.15 	1.579260 	0.316640 
354.75 	1.587220 	0.317050 
356.34 	1.594980 	0.317230 
357.93 	1.602560 	0.317210 
359.52 	1.610070 	0.316950 
361.11 	1.617610 	0.316400 
362.71 	1.625240 	0.315500 
364.30 	1.632760 	0.314260 
365.89 	1.639820 	0.312660 
367.48 	1.646140 	0.310710 
369.07 	1.651670 	0.308420 
370.67 	1.656660 	0.305800 
372.26 	1.661360 	0.302880 
373.85 	1.665950 	0.299720 
375.44 	1.670380 	0.296490 
377.03 	1.674530 	0.293390 
378.63 	1.678310 	0.290600 
380.22 	1.681690 	0.288200 
381.81 	1.684820 	0.286070 
383.40 	1.687800 	0.284120 
384.99 	1.690760 	0.282260 
386.59 	1.693680 	0.280430 
388.18 	1.696480 	0.278630 
389.77 	1.699080 	0.276810 
391.36 	1.701440 	0.274970 
392.96 	1.703670 	0.273200 
394.55 	1.705910 	0.271600 
396.14 	1.708290 	0.270260 
397.73 	1.710920 	0.269240 
399.32 	1.713850 	0.268420 
400.92 	1.717100 	0.267610 
402.51 	1.720700 	0.266680 
404.10 	1.724650 	0.265480 
405.69 	1.728820 	0.263990 
407.29 	1.733060 	0.262220 
408.88 	1.737220 	0.260160 
410.47 	1.741170 	0.257810 
412.06 	1.744890 	0.255210 
413.65 	1.748390 	0.252390 
415.25 	1.751690 	0.249410 
416.84 	1.754810 	0.246300 
418.43 	1.757740 	0.243100 
420.02 	1.760500 	0.239860 
421.62 	1.763070 	0.236630 
423.21 	1.765440 	0.233440 
424.80 	1.767630 	0.230320 
426.39 	1.769700 	0.227290 
427.99 	1.771710 	0.224360 
429.58 	1.773740 	0.221520 
431.17 	1.775850 	0.218790 
432.76 	1.778080 	0.216150 
434.35 	1.780450 	0.213570 
435.95 	1.782940 	0.211040 
437.54 	1.785580 	0.208520 
439.13 	1.788360 	0.205980 
440.72 	1.791290 	0.203390 
442.32 	1.794330 	0.200660 
443.91 	1.797480 	0.197720 
445.50 	1.800740 	0.194510 
447.09 	1.804070 	0.190970 
448.69 	1.807430 	0.187080 
450.28 	1.810750 	0.182880 
451.87 	1.813940 	0.178370 
453.46 	1.816940 	0.173590 
455.05 	1.819680 	0.168560 
456.65 	1.822120 	0.163280 
458.24 	1.824270 	0.157800 
459.83 	1.826130 	0.152130 
461.42 	1.827720 	0.146310 
463.01 	1.829020 	0.140350 
464.61 	1.830050 	0.134280 
466.20 	1.830770 	0.128140 
467.79 	1.831160 	0.121990 
469.38 	1.831190 	0.115860 
470.98 	1.830820 	0.109790 
472.57 	1.830050 	0.103820 
474.16 	1.828890 	0.097970 
475.75 	1.827410 	0.092280 
477.34 	1.825680 	0.086780 
478.93 	1.823740 	0.081470 
480.53 	1.821680 	0.076390 
482.12 	1.819520 	0.071570 
483.71 	1.817290 	0.066990 
485.30 	1.814970 	0.062640 
486.89 	1.812560 	0.058500 
488.49 	1.810060 	0.054570 
490.08 	1.807450 	0.050840 
491.67 	1.804730 	0.047280 
493.26 	1.801930 	0.043890 
494.85 	1.799060 	0.040690 
496.45 	1.796140 	0.037660 
498.04 	1.793210 	0.034820 
499.63 	1.790280 	0.032160 
501.22 	1.787370 	0.029680 
502.81 	1.784490 	0.027380 
504.40 	1.781640 	0.025250 
505.99 	1.778830 	0.023270 
507.59 	1.776030 	0.021430 
509.18 	1.773270 	0.019720 
510.77 	1.770520 	0.018130 
512.36 	1.767810 	0.016650 
513.95 	1.765120 	0.015270 
515.54 	1.762480 	0.013990 
517.13 	1.759900 	0.012810 
518.73 	1.757370 	0.011720 
520.32 	1.754910 	0.010720 
521.91 	1.752530 	0.009810 
523.50 	1.750220 	0.008980 
525.09 	1.748000 	0.008230 
526.68 	1.745850 	0.007550 
528.27 	1.743770 	0.006930 
529.86 	1.741770 	0.006370 
531.46 	1.739840 	0.005850 
533.05 	1.737980 	0.005380 
534.64 	1.736190 	0.004950 
536.23 	1.734440 	0.004560 
537.82 	1.732740 	0.004200 
539.41 	1.731070 	0.003870 
541.00 	1.729420 	0.003580 
542.59 	1.727780 	0.003310 
544.18 	1.726140 	0.003070 
545.77 	1.724480 	0.002850 
547.36 	1.722830 	0.002650 
548.95 	1.721190 	0.002470 
550.54 	1.719580 	0.002310 
552.13 	1.717990 	0.002170 
553.73 	1.716450 	0.002040 
555.32 	1.714960 	0.001920 
556.91 	1.713540 	0.001810 
558.50 	1.712180 	0.001710 
560.09 	1.710880 	0.001620 
561.68 	1.709630 	0.001530 
563.27 	1.708430 	0.001450 
564.86 	1.707270 	0.001370 
566.45 	1.706140 	0.001290 
568.04 	1.705040 	0.001220 
569.63 	1.703960 	0.001140 
571.22 	1.702890 	0.001060 
572.81 	1.701840 	0.000990 
574.40 	1.700810 	0.000910 
575.99 	1.699800 	0.000840 
577.58 	1.698800 	0.000770 
579.17 	1.697830 	0.000710 
580.76 	1.696880 	0.000660 
582.35 	1.695950 	0.000610 
583.93 	1.695040 	0.000570 
585.52 	1.694160 	0.000550 
587.11 	1.693290 	0.000520 
588.70 	1.692440 	0.000500 
590.29 	1.691600 	0.000490 
591.88 	1.690780 	0.000470 
593.47 	1.689980 	0.000450 
595.06 	1.689180 	0.000430 
596.65 	1.688400 	0.000410 
598.24 	1.687620 	0.000380 
599.83 	1.686850 	0.000350 
601.42 	1.686090 	0.000310 
603.00 	1.685340 	0.000270 
604.59 	1.684610 	0.000230 
606.18 	1.683890 	0.000190 
607.77 	1.683180 	0.000150 
609.36 	1.682480 	0.000120 
610.95 	1.681810 	0.000090 
612.54 	1.681150 	0.000070 
614.12 	1.680500 	0.000050 
615.71 	1.679880 	0.000030 
617.30 	1.679260 	0.000020 
618.89 	1.678640 	0.000010 
620.48 	1.678040 	0.000010 
622.07 	1.677440 	0.000000 
623.65 	1.676850 	0.000000 
625.24 	1.676250 	0.000000 
626.83 	1.675660 	0.000000 
628.42 	1.675060 	0.000000 
630.00 	1.674460 	0.000000 
631.59 	1.673860 	0.000000 
633.18 	1.673270 	0.000000 
634.77 	1.672680 	0.000000 
636.35 	1.672100 	0.000000 
637.94 	1.671530 	0.000000 
639.53 	1.670970 	0.000000 
641.12 	1.670430 	0.000000 
642.70 	1.669890 	0.000000 
644.29 	1.669380 	0.000000 
645.88 	1.668880 	0.000000 
647.46 	1.668400 	0.000000 
649.05 	1.667930 	0.000000 
650.64 	1.667470 	0.000000 
652.22 	1.667020 	0.000000 
653.81 	1.666580 	0.000000 
655.40 	1.666140 	0.000000 
656.98 	1.665710 	0.000000 
658.57 	1.665280 	0.000000 
660.16 	1.664850 	0.000000 
661.74 	1.664420 	0.000000 
663.33 	1.663990 	0.000000 
664.92 	1.663560 	0.000000 
666.50 	1.663140 	0.000000 
668.09 	1.662710 	0.000000 
669.67 	1.662290 	0.000000 
671.26 	1.661860 	0.000000 
672.84 	1.661440 	0.000000 
674.43 	1.661020 	0.000000 
676.02 	1.660610 	0.000000 
677.60 	1.660200 	0.000000 
679.19 	1.659790 	0.000000 
680.77 	1.659390 	0.000000 
682.36 	1.659000 	0.000000 
683.94 	1.658610 	0.000000 
685.53 	1.658220 	0.000000 
687.11 	1.657840 	0.000000 
688.70 	1.657470 	0.000000 
690.28 	1.657100 	0.000000 
691.86 	1.656740 	0.000000 
693.45 	1.656390 	0.000000 
695.03 	1.656050 	0.000000 
696.62 	1.655710 	0.000000 
698.20 	1.655380 	0.000000 
699.79 	1.655060 	0.000000 
701.37 	1.654750 	0.000000 
702.95 	1.654440 	0.000000 
704.54 	1.654140 	0.000000 
706.12 	1.653850 	0.000000 
707.71 	1.653560 	0.000000 
709.29 	1.653270 	0.000000 
710.87 	1.652980 	0.000000 
712.46 	1.652700 	0.000000 
714.04 	1.652420 	0.000000 
715.62 	1.652130 	0.000000 
717.21 	1.651850 	0.000000 
718.79 	1.651570 	0.000000 
720.37 	1.651290 	0.000000 
721.95 	1.651000 	0.000000 
723.54 	1.650720 	0.000000 
725.12 	1.650430 	0.000000 
726.70 	1.650150 	0.000000 
728.28 	1.649860 	0.000000 
729.87 	1.649580 	0.000000 
731.45 	1.649300 	0.000000 
733.03 	1.649010 	0.000000 
734.61 	1.648740 	0.000000 
736.19 	1.648460 	0.000000 
737.78 	1.648180 	0.000000 
739.36 	1.647910 	0.000000 
740.94 	1.647640 	0.000000 
742.52 	1.647370 	0.000000 
744.10 	1.647110 	0.000000 
745.68 	1.646840 	0.000000 
747.26 	1.646580 	0.000000 
748.84 	1.646330 	0.000000 
750.43 	1.646070 	0.000000 
752.01 	1.645820 	0.000000 
753.59 	1.645570 	0.000000 
755.17 	1.645320 	0.000000 
756.75 	1.645080 	0.000000 
758.33 	1.644840 	0.000000 
759.91 	1.644600 	0.000000 
761.49 	1.644360 	0.000000 
763.07 	1.644130 	0.000000 
764.65 	1.643900 	0.000000 
766.23 	1.643670 	0.000000 
767.81 	1.643450 	0.000000 
769.39 	1.643230 	0.000000 
770.97 	1.643010 	0.000000 
772.55 	1.642790 	0.000000 
774.12 	1.642570 	0.000000 
775.70 	1.642360 	0.000000 
777.28 	1.642150 	0.000000 
778.86 	1.641940 	0.000000 
780.44 	1.641740 	0.000000 
782.02 	1.641540 	0.000000 
783.60 	1.641340 	0.000000 
785.18 	1.641140 	0.000000 
786.75 	1.640940 	0.000000 
788.33 	1.640740 	0.000000 
789.91 	1.640550 	0.000000 
791.49 	1.640360 	0.000000 
793.06 	1.640170 	0.000000 
794.64 	1.639990 	0.000000 
796.22 	1.639800 	0.000000 
797.80 	1.639620 	0.000000 
799.37 	1.639430 	0.000000 
800.95 	1.639250 	0.000000 
802.53 	1.639070 	0.000000 
804.11 	1.638890 	0.000000 
805.68 	1.638720 	0.000000 
807.26 	1.638540 	0.000000 
808.83 	1.638370 	0.000000 
810.41 	1.638200 	0.000000 
811.99 	1.638030 	0.000000 
813.56 	1.637860 	0.000000 
815.14 	1.637690 	0.000000 
816.71 	1.637520 	0.000000 
818.29 	1.637360 	0.000000 
819.87 	1.637200 	0.000000 
821.44 	1.637030 	0.000000 
823.02 	1.636870 	0.000000 
824.59 	1.636710 	0.000000 
826.17 	1.636560 	0.000000 
827.74 	1.636400 	0.000000 
829.32 	1.636240 	0.000000 
830.89 	1.636090 	0.000000 
832.46 	1.635940 	0.000000 
834.04 	1.635790 	0.000000 
835.61 	1.635640 	0.000000 
837.19 	1.635500 	0.000000 
838.76 	1.635350 	0.000000 
840.33 	1.635210 	0.000000 
841.91 	1.635070 	0.000000 
843.48 	1.634930 	0.000000 
845.05 	1.634790 	0.000000 
846.63 	1.634660 	0.000000 
848.20 	1.634530 	0.000000 
849.77 	1.634390 	0.000000 
851.35 	1.634260 	0.000000 
852.92 	1.634130 	0.000000 
854.49 	1.634000 	0.000000 
856.06 	1.633880 	0.000000 
857.64 	1.633750 	0.000000 
859.21 	1.633630 	0.000000 
860.78 	1.633500 	0.000000 
862.35 	1.633380 	0.000000 
863.92 	1.633260 	0.000000 
865.49 	1.633140 	0.000000 
867.07 	1.633020 	0.000000 
868.64 	1.632900 	0.000000 
870.21 	1.632780 	0.000000 
871.78 	1.632670 	0.000000 
873.35 	1.632550 	0.000000 
874.92 	1.632430 	0.000000 
876.49 	1.632320 	0.000000 
878.06 	1.632210 	0.000000 
879.63 	1.632100 	0.000000 
881.20 	1.631990 	0.000000 
882.77 	1.631880 	0.000000 
884.34 	1.631770 	0.000000 
885.91 	1.631660 	0.000000 
887.48 	1.631560 	0.000000 
889.05 	1.631460 	0.000000 
890.62 	1.631360 	0.000000 
892.18 	1.631260 	0.000000 
893.75 	1.631170 	0.000000 
895.32 	1.631070 	0.000000 
896.89 	1.630980 	0.000000 
898.46 	1.630890 	0.000000 
900.03 	1.630810 	0.000000 
901.59 	1.630720 	0.000000 
903.16 	1.630640 	0.000000 
904.73 	1.630560 	0.000000 
906.30 	1.630480 	0.000000 
907.86 	1.630410 	0.000000 
909.43 	1.630330 	0.000000 
911.00 	1.630260 	0.000000 
912.56 	1.630190 	0.000000 
914.13 	1.630110 	0.000000 
915.70 	1.630040 	0.000000 
917.26 	1.629970 	0.000000 
918.83 	1.629900 	0.000000 
920.39 	1.629830 	0.000000 
921.96 	1.629750 	0.000000 
923.53 	1.629680 	0.000000 
925.09 	1.629600 	0.000000 
926.66 	1.629530 	0.000000 
928.22 	1.629450 	0.000000 
929.79 	1.629370 	0.000000 
931.35 	1.629290 	0.000000 
932.92 	1.629210 	0.000000 
934.48 	1.629130 	0.000000 
936.04 	1.629040 	0.000000 
937.61 	1.628950 	0.000000 
939.17 	1.628860 	0.000000 
940.74 	1.628770 	0.000000 
942.30 	1.628670 	0.000000 
943.86 	1.628580 	0.000000 
945.42 	1.628480 	0.000000 
946.99 	1.628380 	0.000000 
948.55 	1.628290 	0.000000 
950.11 	1.628190 	0.000000 
951.68 	1.628090 	0.000000 
953.24 	1.627990 	0.000000 
954.80 	1.627900 	0.000000 
956.36 	1.627800 	0.000000 
957.92 	1.627700 	0.000000 
959.48 	1.627610 	0.000000 
961.05 	1.627510 	0.000000 
962.61 	1.627420 	0.000000 
964.17 	1.627320 	0.000000 
965.73 	1.627230 	0.000000 
967.29 	1.627140 	0.000000 
968.85 	1.627050 	0.000000 
970.41 	1.626970 	0.000000 
971.97 	1.626880 	0.000000 
973.53 	1.626800 	0.000000 
975.09 	1.626720 	0.000000 
976.65 	1.626640 	0.000000 
978.21 	1.626570 	0.000000 
979.77 	1.626490 	0.000000 
981.33 	1.626420 	0.000000 
982.88 	1.626340 	0.000000 
984.44 	1.626270 	0.000000 
986.00 	1.626190 	0.000000 
987.56 	1.626120 	0.000000 
989.12 	1.626040 	0.000000 
990.68 	1.625970 	0.000000 
992.23 	1.625890 	0.000000 
993.79 	1.625820 	0.000000 
995.35 	1.625740 	0.000000 
996.90 	1.625660 	0.000000 
998.46 	1.625580 	0.000000 
1011.83 	1.624800 	0.000000 
1015.22 	1.624570 	0.000000 
1018.61 	1.624330 	0.000000 
1022.01 	1.624080 	0.000000 
1025.41 	1.623830 	0.000000 
1028.80 	1.623580 	0.000000 
1032.20 	1.623330 	0.000000 
1035.59 	1.623090 	0.000000 
1038.99 	1.622850 	0.000000 
1042.39 	1.622620 	0.000000 
1045.79 	1.622410 	0.000000 
1049.19 	1.622210 	0.000000 
1052.59 	1.622030 	0.000000 
1055.99 	1.621870 	0.000000 
1059.39 	1.621730 	0.000000 
1062.79 	1.621600 	0.000000 
1066.19 	1.621490 	0.000000 
1069.59 	1.621390 	0.000000 
1072.99 	1.621300 	0.000000 
1076.39 	1.621220 	0.000000 
1079.80 	1.621130 	0.000000 
1083.20 	1.621050 	0.000000 
1086.60 	1.620970 	0.000000 
1090.01 	1.620890 	0.000000 
1093.41 	1.620790 	0.000000 
1096.82 	1.620700 	0.000000 
1100.22 	1.620590 	0.000000 
1103.63 	1.620470 	0.000000 
1107.03 	1.620340 	0.000000 
1110.44 	1.620210 	0.000000 
1113.85 	1.620060 	0.000000 
1117.26 	1.619910 	0.000000 
1120.66 	1.619760 	0.000000 
1124.07 	1.619600 	0.000000 
1127.48 	1.619430 	0.000000 
1130.89 	1.619270 	0.000000 
1134.30 	1.619110 	0.000000 
1137.71 	1.618950 	0.000000 
1141.12 	1.618790 	0.000000 
1144.53 	1.618640 	0.000000 
1147.95 	1.618480 	0.000000 
1151.36 	1.618340 	0.000000 
1154.77 	1.618200 	0.000000 
1158.18 	1.618070 	0.000000 
1161.60 	1.617940 	0.000000 
1165.01 	1.617820 	0.000000 
1168.43 	1.617700 	0.000000 
1171.84 	1.617580 	0.000000 
1175.26 	1.617470 	0.000000 
1178.67 	1.617360 	0.000000 
1182.09 	1.617250 	0.000000 
1185.51 	1.617140 	0.000000 
1188.92 	1.617030 	0.000000 
1192.34 	1.616930 	0.000000 
1195.76 	1.616820 	0.000000 
1199.18 	1.616710 	0.000000 
1202.60 	1.616600 	0.000000 
1206.02 	1.616490 	0.000000 
1209.44 	1.616380 	0.000000 
1212.86 	1.616270 	0.000000 
1216.28 	1.616150 	0.000000 
1219.70 	1.616030 	0.000000 
1223.12 	1.615910 	0.000000 
1226.54 	1.615790 	0.000000 
1229.96 	1.615670 	0.000000 
1233.39 	1.615540 	0.000000 
1236.81 	1.615420 	0.000000 
1240.24 	1.615290 	0.000000 
1243.66 	1.615160 	0.000000 
1247.08 	1.615030 	0.000000 
1250.51 	1.614900 	0.000000 
1253.94 	1.614770 	0.000000 
1257.36 	1.614640 	0.000000 
1260.79 	1.614510 	0.000000 
1264.22 	1.614370 	0.000000 
1267.64 	1.614240 	0.000000 
1271.07 	1.614110 	0.000000 
1274.50 	1.613970 	0.000000 
1277.93 	1.613840 	0.000000 
1281.36 	1.613710 	0.000000 
1284.79 	1.613570 	0.000000 
1288.22 	1.613440 	0.000000 
1291.65 	1.613310 	0.000000 
1295.08 	1.613170 	0.000000 
1298.51 	1.613040 	0.000000 
1301.94 	1.612900 	0.000000 
1305.38 	1.612760 	0.000000 
1308.81 	1.612630 	0.000000 
1312.24 	1.612490 	0.000000 
1315.68 	1.612350 	0.000000 
1319.11 	1.612210 	0.000000 
1322.55 	1.612070 	0.000000 
1325.98 	1.611930 	0.000000 
1329.42 	1.611790 	0.000000 
1332.85 	1.611640 	0.000000 
1336.29 	1.611500 	0.000000 
1339.73 	1.611350 	0.000000 
1343.16 	1.611210 	0.000000 
1346.60 	1.611060 	0.000000 
1350.04 	1.610910 	0.000000 
1353.48 	1.610760 	0.000000 
1356.92 	1.610610 	0.000000 
1360.36 	1.610460 	0.000000 
1363.80 	1.610310 	0.000000 
1367.24 	1.610160 	0.000000 
1370.68 	1.610010 	0.000000 
1374.12 	1.609860 	0.000000 
1377.56 	1.609710 	0.000000 
1381.01 	1.609560 	0.000000 
1384.45 	1.609410 	0.000000 
1387.89 	1.609260 	0.000000 
1391.34 	1.609110 	0.000000 
1394.78 	1.608960 	0.000000 
1398.23 	1.608810 	0.000000 
1401.67 	1.608660 	0.000000 
1405.12 	1.608510 	0.000000 
1408.56 	1.608360 	0.000000 
1412.01 	1.608210 	0.000000 
1415.46 	1.608070 	0.000000 
1418.90 	1.607920 	0.000000 
1422.35 	1.607780 	0.000000 
1425.80 	1.607640 	0.000000 
1429.25 	1.607490 	0.000000 
1432.70 	1.607350 	0.000000 
1436.15 	1.607210 	0.000000 
1439.60 	1.607080 	0.000000 
1443.05 	1.606940 	0.000000 
1446.50 	1.606800 	0.000000 
1449.95 	1.606670 	0.000000 
1453.40 	1.606540 	0.000000 
1456.85 	1.606400 	0.000000 
1460.31 	1.606270 	0.000000 
1463.76 	1.606140 	0.000000 
1467.21 	1.606020 	0.000000 
1470.67 	1.605890 	0.000000 
1474.12 	1.605770 	0.000000 
1477.58 	1.605650 	0.000000 
1481.03 	1.605530 	0.000000 
1484.49 	1.605410 	0.000000 
1487.95 	1.605300 	0.000000 
1491.40 	1.605180 	0.000000 
1494.86 	1.605070 	0.000000 
1498.32 	1.604960 	0.000000 
1501.78 	1.604860 	0.000000 
1505.24 	1.604750 	0.000000 
1508.69 	1.604650 	0.000000 
1512.15 	1.604550 	0.000000 
1515.61 	1.604440 	0.000000 
1519.07 	1.604350 	0.000000 
1522.54 	1.604250 	0.000000 
1526.00 	1.604160 	0.000000 
1529.46 	1.604060 	0.000000 
1532.92 	1.603970 	0.000000 
1536.38 	1.603880 	0.000000 
1539.85 	1.603790 	0.000000 
1543.31 	1.603700 	0.000000 
1546.78 	1.603620 	0.000000 
1550.24 	1.603530 	0.000000 
1553.70 	1.603450 	0.000000 
1557.17 	1.603370 	0.000000 
1560.64 	1.603280 	0.000000 
1564.10 	1.603200 	0.000000 
1567.57 	1.603120 	0.000000 
1571.04 	1.603040 	0.000000 
1574.50 	1.602960 	0.000000 
1577.97 	1.602880 	0.000000 
1581.44 	1.602810 	0.000000 
1584.91 	1.602730 	0.000000 
1588.38 	1.602650 	0.000000 
1591.85 	1.602580 	0.000000 
1595.32 	1.602500 	0.000000 
1598.79 	1.602420 	0.000000 
