;  Optical constants for cubic CaF2
; 
;   taken from:
;
;   'Handbook of Optical Constants of Solids II', Ed. by Edward D. Palik,
;   Academic Press, Inc., 1991.
;   
;    Lambda (nm)            n            k
;-----------------------------------------
101.50	1.77500000	0.54000000
102.60	1.74200000	0.51700000
103.50	1.73200000	0.47300000
104.70	1.72500000	0.39500000
106.70	1.61500000	0.34400000
109.00	1.53300000	0.60000000
110.00	1.57000000	0.78500000
111.60	1.77500000	0.83000000
114.60	2.00000000	0.63100000
116.20	2.02700000	0.49000000
117.49	1.99600000	0.39000000
118.99	1.98300000	0.29000000
120.00	2.05000000	0.10000000
125.39	1.88800000	0.00000000
127.60	1.85500000	0.00000000
133.29	1.80300000	0.00000000
143.29	1.71100000	0.00000000
160.49	1.60700000	0.00000000
160.49	1.55470000	0.00000000
161.19	1.55090000	0.00000000
164.49	1.54380000	0.00000000
167.09	1.53850000	0.00000000
172.49	1.52890000	0.00000000
176.39	1.52270000	0.00000000
181.89	1.51520000	0.00000000
184.99	1.51024000	0.00000000
185.99	1.50930000	0.00000000
192.99	1.50150000	0.00000000
196.99	1.49755000	0.00000000
197.99	1.49643000	0.00000000
199.99	1.49547000	0.00000000
203.99	1.49190000	0.00000000
207.99	1.48907000	0.00000000
210.99	1.48705000	0.00000000
213.99	1.48480000	0.00000000
218.99	1.48167000	0.00000000
219.99	1.48110000	0.00000000
239.99	1.47120000	0.00000000
259.99	1.46391000	0.00000000
279.99	1.45836000	0.00000000
299.98	1.45402000	0.00000000
319.98	1.45056000	0.00000000
339.99	1.44775000	0.00000000
359.99	1.44548000	0.00000000
379.98	1.44349000	0.00000000
399.99	1.44185000	0.00000000
419.99	1.44045000	0.00000000
439.97	1.43924000	0.00000000
459.99	1.43820000	0.00000000
479.99	1.43728000	0.00000000
499.98	1.43647000	0.00000000
519.99	1.43575000	0.00000000
539.98	1.43512000	0.00000000
559.98	1.43454000	0.00000000
579.97	1.43403000	0.00000000
599.98	1.43356000	0.00000000
619.96	1.43313000	0.00000000
639.96	1.43275000	0.00000000
659.96	1.43239000	0.00000000
679.98	1.43206000	0.00000000
699.98	1.43176000	0.00000000
719.98	1.43148000	0.00000000
739.96	1.43121000	0.00000000
759.96	1.43097000	0.00000000
779.94	1.43074000	0.00000000
799.97	1.43052000	0.00000000
819.97	1.43032000	0.00000000
839.97	1.43013000	0.00000000
859.96	1.42995000	0.00000000
879.98	1.42977000	0.00000000
899.97	1.42961000	0.00000000
919.94	1.42945000	0.00000000
939.95	1.42930000	0.00000000
959.97	1.42915000	0.00000000
979.92	1.42901000	0.00000000
999.92	1.42888000	0.00000000
1199.96	1.42771000	0.00000000
1399.95	1.42672000	0.00000000
1599.95	1.42579000	0.00000000
1799.94	1.42484000	0.00000000
2000.00	1.42385000	0.00000000
2199.79	1.42280000	0.00000000
2399.92	1.42168000	0.00000000
