;UO 
;UO CdSe.ASC: Values of n and k for hexagonal cadmium selenide
;UO from various references in HOCII (pg. 565).  References are 
;UO 1, 2, 3, 4, 5, 12. 
;UO 
;UO From HANDBOOK OF OPTICAL CONSTANTS IN SOLIDS II edited by Edward D.
;UO Palik. Copyright (c) 1991 by Academic Press, Inc. Reproduced by
;UO permission of the publisher.
;UO -------------------------------------------------------------- 
;UO        nm        n        k
;UO --------------------------------------------------------------	
;N  7
;L    Wavelength[nm]        n        k
125.70	0.77400000	0.65000000
127.20	0.84700000	0.67500000
136.20	0.83300000	0.79300000
141.90	0.91000000	0.85900000
147.60	1.01600000	0.90700000
149.40	1.03400000	0.91000000
169.90	1.25600000	1.08400000
192.90	1.42000000	0.88200000
225.60	1.50600000	1.54400000
227.70	1.50500000	1.56600000
229.40	1.49900000	1.59400000
231.60	1.94300000	1.49700000
231.70	1.49900000	1.63100000
233.10	1.48700000	1.67900000
234.30	1.48100000	1.71200000
234.90	1.95700000	1.49100000
235.80	1.49000000	1.76300000
237.00	1.48700000	1.82900000
237.70	1.96900000	1.48200000
238.90	1.52600000	1.91400000
239.80	1.55500000	1.95900000
241.00	1.96700000	1.48100000
241.70	1.60000000	2.02000000
244.10	1.97600000	1.48000000
246.20	1.81200000	2.17800000
246.90	1.99100000	1.52800000
247.30	1.88600000	2.19600000
248.10	1.93900000	2.20800000
249.20	2.02000000	1.58000000
249.70	2.04600000	2.21400000
250.90	2.09600000	2.21700000
251.40	2.12100000	2.21500000
251.90	2.06200000	1.62300000
252.50	2.08400000	1.63900000
254.40	2.26900000	2.19800000
255.30	2.32000000	2.18700000
256.10	2.36400000	2.17800000
256.80	2.39900000	2.16900000
256.90	2.22900000	1.64700000
257.20	2.42500000	2.15200000
257.70	2.44900000	2.14300000
258.30	2.48600000	2.12900000
258.40	2.49000000	2.12600000
259.10	2.51500000	2.11300000
260.10	2.55600000	2.08800000
260.70	2.34400000	1.58000000
261.00	2.59300000	2.06300000
261.90	2.62600000	2.04000000
262.20	2.63900000	2.02700000
263.20	2.67500000	1.99900000
264.10	2.69400000	1.98300000
264.40	2.70500000	1.97200000
265.30	2.71400000	1.95600000
265.70	2.43600000	1.49100000
265.90	2.74500000	1.93000000
266.80	2.77400000	1.88900000
267.50	2.78700000	1.86900000
268.10	2.80800000	1.85800000
268.80	2.81700000	1.83300000
269.60	2.44300000	1.43400000
270.30	2.83400000	1.77300000
271.30	2.85000000	1.74500000
271.80	2.43800000	1.40800000
272.20	2.87000000	1.70800000
273.70	2.88500000	1.66400000
274.00	2.42100000	1.39200000
274.80	2.89200000	1.63100000
275.40	2.91000000	1.60900000
276.90	2.91900000	1.57100000
277.10	2.43500000	1.42900000
279.10	2.46200000	1.45400000
279.20	2.91400000	1.50200000
281.30	2.91500000	1.45000000
283.40	2.57500000	1.41900000
284.00	2.91100000	1.39200000
286.00	2.62400000	1.37000000
287.10	2.90400000	1.33700000
288.40	2.62100000	1.33200000
290.60	2.89700000	1.27400000
291.70	2.60700000	1.30200000
294.10	2.59300000	1.31300000
295.60	2.61600000	1.34900000
295.80	2.88500000	1.20300000
297.10	2.67300000	1.37000000
299.00	2.73500000	1.38100000
299.50	2.86500000	1.16300000
300.70	2.77900000	1.32200000
303.10	2.83700000	1.26000000
305.00	2.84500000	1.10900000
305.20	2.85400000	1.20100000
309.20	2.87000000	1.11400000
310.60	2.83000000	1.06900000
312.70	2.87100000	1.05400000
315.10	2.86900000	1.01000000
316.60	2.81300000	1.02700000
317.60	2.86400000	0.98100000
320.40	2.85400000	0.95200000
323.60	2.84300000	0.92200000
326.60	2.83400000	0.89300000
326.70	2.79300000	0.96400000
331.50	2.81800000	0.85900000
333.70	2.78700000	0.93600000
335.90	2.80400000	0.83800000
340.70	2.79100000	0.80900000
341.10	2.77700000	0.90200000
347.60	2.77800000	0.78200000
350.20	2.76700000	0.85000000
353.20	2.76400000	0.76000000
361.00	2.76500000	0.81700000
362.20	2.75100000	0.73600000
368.60	2.74000000	0.71400000
371.80	2.76300000	0.78100000
380.60	2.72400000	0.68200000
380.80	2.76300000	0.76100000
391.70	2.76200000	0.73100000
396.00	2.71000000	0.64900000
401.40	2.76200000	0.70900000
407.00	2.70400000	0.63000000
410.80	2.76400000	0.68800000
416.50	2.70300000	0.61500000
418.00	2.76300000	0.67500000
424.70	2.69800000	0.60200000
430.70	2.76400000	0.64900000
436.30	2.69500000	0.58100000
439.40	2.77100000	0.63500000
447.00	2.69600000	0.56600000
449.60	2.77300000	0.61900000
460.10	2.69400000	0.54600000
463.20	2.78000000	0.59600000
477.90	2.78500000	0.58300000
479.60	2.70300000	0.52300000
495.30	2.79600000	0.55100000
503.00	2.70800000	0.49600000
510.40	2.80200000	0.52400000
524.90	2.81200000	0.50600000
531.90	2.72800000	0.47800000
546.40	2.82900000	0.48200000
555.10	2.76000000	0.48100000
563.10	2.85300000	0.44000000
564.70	2.76500000	0.45900000
570.00	2.86600000	0.40200000
573.10	2.88500000	0.42200000
581.80	2.75800000	0.42700000
583.60	2.87400000	0.39100000
597.30	2.85300000	0.34400000
613.20	2.83700000	0.31100000
628.80	2.74000000	0.27500000
641.10	2.73300000	0.25700000
647.20	2.83400000	0.26800000
655.60	2.73300000	0.24200000
660.50	2.73900000	0.24700000
666.20	2.74100000	0.25000000
673.80	2.86200000	0.27000000
678.60	2.75500000	0.23100000
684.60	2.76500000	0.23300000
689.30	2.77800000	0.23100000
695.30	2.79700000	0.23000000
701.40	2.81200000	0.23000000
705.90	2.83200000	0.22800000
708.50	2.84500000	0.21700000
713.50	2.85600000	0.16200000
718.10	2.86400000	0.02500000
722.60	2.85600000	0.0
726.90	2.84100000	0.0
730.60	2.82100000	0.0
733.60	2.80700000	0.0
739.30	2.78000000	0.0
744.90	2.76100000	0.0
749.20	2.74600000	0.0
752.00	2.66000000	0.0
752.70	2.73800000	0.0
756.70	2.72700000	0.0
759.60	2.72100000	0.0
763.80	2.71200000	0.0
773.60	2.69100000	0.0
788.10	2.67300000	0.0
791.00	2.63500000	0.0
799.10	2.65900000	0.0
810.30	2.64600000	0.0
828.20	2.63400000	0.0
840.60	2.62500000	0.0
850.00	2.60800000	0.0
859.60	2.61200000	0.0
874.60	2.60200000	0.0
894.30	2.59200000	0.0
915.70	2.58300000	0.0
933.80	2.57600000	0.0
943.40	2.57300000	0.0
1000.00	2.54700000	0.0
1160.00	2.52400000	0.0
1342.00	2.50000000	0.0
1500.00	2.48400000	0.0
1671.00	2.46900000	0.0
1826.00	2.46500000	0.0
2000.00	2.46800000	0.0
2340.00	2.45900000	0.0
2682.00	2.45300000	0.0
