; Refractive index spectrum for Co by Johnson
;
; P. B. Johnson and R. W. Christy. Optical constants of transition metals: Ti, V, Cr, Mn, Fe, Co, Ni, and Pd, <a href="http://dx.doi.org/10.1103/PhysRevB.9.5056"><i>Phys. Rev. B</i> <b>9</b>, 5056-5070 (1974)</a>
;
; Room temperature
;
; lambda/nm    n     k
188.00 	1.16000000 	1.59000000 
192.00 	1.21000000 	1.63000000 
195.00 	1.26000000 	1.67000000 
199.00 	1.29000000 	1.71000000 
203.00 	1.32000000 	1.75000000 
207.00 	1.36000000 	1.78000000 
212.00 	1.38000000 	1.82000000 
216.00 	1.41000000 	1.84000000 
221.00 	1.43000000 	1.85000000 
226.00 	1.45000000 	1.86000000 
231.00 	1.47000000 	1.87000000 
237.00 	1.47000000 	1.89000000 
243.00 	1.46000000 	1.91000000 
249.00 	1.45000000 	1.93000000 
255.00 	1.45000000 	1.97000000 
262.00 	1.44000000 	2.01000000 
269.00 	1.44000000 	2.04000000 
276.00 	1.44000000 	2.09000000 
284.00 	1.44000000 	2.14000000 
292.00 	1.44000000 	2.19000000 
301.00 	1.44000000 	2.25000000 
311.00 	1.44000000 	2.31000000 
320.00 	1.45000000 	2.37000000 
332.00 	1.46000000 	2.44000000 
342.00 	1.48000000 	2.52000000 
354.00 	1.49000000 	2.61000000 
368.00 	1.50000000 	2.71000000 
381.00 	1.53000000 	2.82000000 
397.00 	1.57000000 	2.93000000 
413.00 	1.61000000 	3.05000000 
431.00 	1.67000000 	3.17000000 
451.00 	1.74000000 	3.28000000 
471.00 	1.81000000 	3.41000000 
496.00 	1.88000000 	3.55000000 
521.00 	1.97000000 	3.68000000 
549.00 	2.05000000 	3.82000000 
582.00 	2.13000000 	3.96000000 
617.00 	2.19000000 	4.11000000 
659.00 	2.25000000 	4.27000000 
704.00 	2.31000000 	4.45000000 
756.00 	2.40000000 	4.64000000 
821.00 	2.53000000 	4.88000000 
892.00 	2.65000000 	5.16000000 
984.00 	2.78000000 	5.50000000 
1088.00 	2.94000000 	5.88000000 
1216.00 	3.17000000 	6.31000000 
1393.00 	3.42000000 	6.77000000 
1610.00 	3.61000000 	7.26000000 
1937.00 	3.87000000 	7.79000000 
