; From SOPRA S.A. http://www.sopra-sa.com/indices.htm
; Filename    Symbol               Range (nm)     Description
; CR5SI3      Cr5Si3              210    12398    Chromium Silicide
; lambda/nm       n         k
210.14	1.31100000	0.92800000
213.77	1.31500000	0.92800000
217.52	1.31700000	0.93100000
221.40	1.31800000	0.93300000
225.43	1.32000000	0.93900000
229.60	1.32100000	0.94600000
233.93	1.32300000	0.95600000
238.43	1.32600000	0.96400000
243.11	1.32700000	0.97400000
247.97	1.33000000	0.98400000
253.03	1.33100000	0.99400000
258.30	1.33200000	1.00500000
263.80	1.33300000	1.01700000
269.53	1.33500000	1.03000000
275.52	1.33600000	1.04300000
281.78	1.34100000	1.06400000
288.34	1.34600000	1.08200000
295.20	1.34900000	1.09500000
302.40	1.35300000	1.11000000
309.96	1.35300000	1.12600000
317.91	1.35100000	1.14600000
326.28	1.34800000	1.17400000
335.10	1.34700000	1.19900000
344.40	1.34400000	1.22200000
354.24	1.34300000	1.26200000
364.66	1.34800000	1.31100000
375.71	1.35500000	1.35900000
387.45	1.36100000	1.39900000
399.95	1.37300000	1.45100000
413.28	1.39200000	1.51300000
427.54	1.41500000	1.57300000
442.80	1.44300000	1.63200000
459.20	1.47600000	1.68600000
476.87	1.50700000	1.74300000
495.94	1.55700000	1.80700000
516.60	1.59300000	1.86000000
539.07	1.63400000	1.92900000
563.57	1.68900000	2.00400000
590.41	1.74500000	2.06900000
619.93	1.80700000	2.14200000
652.55	1.87700000	2.22900000
688.81	1.95400000	2.31600000
729.32	2.04800000	2.41100000
774.91	2.17100000	2.51200000
826.57	2.32300000	2.59500000
885.61	2.47200000	2.66700000
953.73	2.66600000	2.68500000
1033.21	2.80500000	2.67600000
1127.14	2.93600000	2.64000000
1239.85	2.99500000	2.57600000
1377.61	2.91800000	2.53100000
1549.81	2.67900000	2.66900000
1771.22	2.46700000	3.14000000
2066.42	2.47000000	3.82500000
2479.70	2.59200000	4.45600000
