; From SOPRA S.A. http://www.sopra-sa.com/indices.htm
; Filename    Symbol               Range (nm)     Description
; CR3SI       CrSi3               210    12398    Chromium Silicide
; lambda/nm       n         k
210.14	1.39600000	0.84100000
213.77	1.42600000	0.80800000
217.52	1.43200000	0.79600000
221.40	1.43700000	0.78500000
225.43	1.44200000	0.76400000
229.60	1.44300000	0.74800000
233.93	1.44100000	0.73500000
238.43	1.43800000	0.72500000
243.11	1.43400000	0.71800000
247.97	1.43000000	0.71200000
253.03	1.42300000	0.70600000
258.30	1.41700000	0.70500000
263.80	1.41000000	0.70300000
269.53	1.40300000	0.70500000
275.52	1.39700000	0.70800000
281.78	1.38900000	0.71300000
288.34	1.38100000	0.71800000
295.20	1.37500000	0.72400000
302.40	1.36700000	0.73000000
309.96	1.35700000	0.73800000
317.91	1.34700000	0.75000000
326.28	1.33500000	0.76600000
335.10	1.32600000	0.77800000
344.40	1.31500000	0.79400000
354.24	1.30500000	0.81800000
364.66	1.29400000	0.84800000
375.71	1.28300000	0.87900000
387.45	1.27600000	0.90700000
399.95	1.26800000	0.94300000
413.28	1.26200000	0.98800000
427.54	1.26100000	1.03400000
442.80	1.26200000	1.08000000
459.20	1.26700000	1.12600000
476.87	1.27200000	1.17500000
495.94	1.28300000	1.23300000
516.60	1.29000000	1.28800000
539.07	1.30300000	1.35500000
563.57	1.32400000	1.42800000
590.41	1.34700000	1.49500000
619.93	1.37500000	1.57400000
652.55	1.41000000	1.66400000
688.81	1.44800000	1.75400000
729.32	1.49800000	1.85600000
774.91	1.56600000	1.97300000
826.57	1.65500000	2.09000000
885.61	1.76100000	2.11100000
953.73	1.91000000	2.29800000
1033.21	2.04000000	2.36800000
1127.14	2.17800000	2.42200000
1239.85	2.29400000	2.45100000
1377.61	2.34900000	2.45700000
1549.81	2.27300000	2.50100000
1771.22	2.07800000	2.76800000
2066.42	1.97600000	3.31100000
2479.70	1.99600000	3.84500000
