;  Optical constants for Cu
; 
;   taken from:
;
;   'Handbook of Optical Constants of Solids', Ed. by Edward D. Palik,
;   Academic Press, Inc., 1985.
;   
;    Lambda (nm)            n            k
;-----------------------------------------
103.32	1.09000000	0.73100000
112.71	1.07000000	0.75400000
123.98	1.04000000	0.81800000
130.51	1.03000000	0.86700000
137.76	1.03000000	0.92100000
145.86	1.03000000	0.97900000
154.97	1.03000000	1.03000000
165.31	1.01000000	1.09000000
177.11	0.97200000	1.20000000
190.74	0.95800000	1.37000000
206.63	1.04000000	1.59000000
213.76	1.10000000	1.67000000
221.39	1.18000000	1.74000000
229.59	1.28000000	1.78000000
238.42	1.38000000	1.80000000
247.96	1.47000000	1.78000000
258.29	1.53000000	1.71000000
269.52	1.52000000	1.67000000
281.77	1.49000000	1.64000000
295.19	1.42000000	1.64000000
309.95	1.34000000	1.72000000
326.26	1.34000000	1.81000000
344.39	1.31000000	1.87000000
364.65	1.27000000	1.95000000
387.44	1.18000000	2.21000000
413.27	1.18000000	2.21000000
442.79	1.17000000	2.36000000
476.85	1.15000000	2.50000000
516.58	1.12000000	2.60000000
539.04	1.04000000	2.59000000
563.54	0.82600000	2.60000000
590.38	0.46800000	2.81000000
619.90	0.27200000	3.24000000
652.53	0.21400000	3.67000000
670.16	0.21500000	3.86000000
688.78	0.21300000	4.05000000
708.46	0.21400000	4.24000000
729.29	0.22300000	4.43000000
826.53	0.26000000	5.26000000
1239.80	0.43300000	8.46000000
1265.10	0.49600000	6.78000000
1291.46	0.50500000	6.92000000
1318.94	0.51500000	7.06000000
1347.61	0.52500000	7.21000000
1377.56	0.53600000	7.36000000
1408.86	0.54700000	7.53000000
1441.63	0.55900000	7.70000000
1475.95	0.57200000	7.88000000
1511.95	0.58600000	8.06000000
1549.75	0.60600000	8.26000000
1589.49	0.62700000	8.47000000
1631.32	0.64900000	8.69000000
1675.41	0.67200000	8.92000000
1721.94	0.69700000	9.16000000
1771.14	0.72300000	9.41000000
1823.24	0.75200000	9.68000000
1878.48	0.78200000	9.97000000
1937.19	0.81500000	10.30000000
1999.68	0.85000000	10.60000000
2066.33	0.89000000	11.00000000
2137.59	0.93300000	11.30000000
2213.93	0.98000000	11.80000000
2295.93	1.03000000	12.20000000
2384.23	1.09000000	12.70000000
2479.60	1.15000000	13.20000000
