; Refractive index spectrum for Fe by Johnson
;
; P. B. Johnson and R. W. Christy. Optical constants of transition metals: Ti, V, Cr, Mn, Fe, Co, Ni, and Pd, <a href="http://dx.doi.org/10.1103/PhysRevB.9.5056"><i>Phys. Rev. B</i> <b>9</b>, 5056-5070 (1974)</a>
;
; Room temperature
;
; lambda/nm    n     k
188.00 	1.29000000 	1.35000000 
192.00 	1.35000000 	1.37000000 
195.00 	1.42000000 	1.39000000 
199.00 	1.45000000 	1.40000000 
203.00 	1.47000000 	1.40000000 
207.00 	1.49000000 	1.41000000 
212.00 	1.47000000 	1.43000000 
216.00 	1.47000000 	1.44000000 
221.00 	1.47000000 	1.47000000 
226.00 	1.47000000 	1.49000000 
231.00 	1.48000000 	1.53000000 
237.00 	1.48000000 	1.57000000 
243.00 	1.50000000 	1.61000000 
249.00 	1.51000000 	1.66000000 
255.00 	1.53000000 	1.70000000 
262.00 	1.56000000 	1.75000000 
269.00 	1.59000000 	1.79000000 
276.00 	1.62000000 	1.84000000 
284.00 	1.64000000 	1.88000000 
292.00 	1.65000000 	1.94000000 
301.00 	1.67000000 	2.00000000 
311.00 	1.69000000 	2.06000000 
320.00 	1.74000000 	2.12000000 
332.00 	1.78000000 	2.19000000 
342.00 	1.85000000 	2.27000000 
354.00 	1.93000000 	2.35000000 
368.00 	2.02000000 	2.43000000 
381.00 	2.12000000 	2.50000000 
397.00 	2.24000000 	2.58000000 
413.00 	2.35000000 	2.65000000 
431.00 	2.48000000 	2.71000000 
451.00 	2.59000000 	2.77000000 
471.00 	2.67000000 	2.82000000 
496.00 	2.74000000 	2.88000000 
521.00 	2.86000000 	2.91000000 
549.00 	2.95000000 	2.93000000 
582.00 	2.94000000 	2.99000000 
617.00 	2.88000000 	3.05000000 
659.00 	2.92000000 	3.10000000 
704.00 	2.86000000 	3.19000000 
756.00 	2.87000000 	3.28000000 
821.00 	2.94000000 	3.39000000 
892.00 	2.96000000 	3.56000000 
984.00 	2.92000000 	3.79000000 
1088.00 	2.97000000 	4.06000000 
1216.00 	3.03000000 	4.39000000 
1393.00 	3.09000000 	4.83000000 
1610.00 	3.11000000 	5.39000000 
1937.00 	3.17000000 	6.12000000 
