; From SOPRA S.A. http://www.sopra-sa.com/indices.htm
; Filename    Symbol               Range (nm)     Description
; GAP100      GaP                 234      840    Gallium Phosphide (100)
; lambda/nm       n         k
234.00	2.62900000	4.18950000
236.00	2.80670000	4.17350000
238.00	3.00260000	4.15340000
240.00	3.20990000	4.10580000
242.00	3.43520000	4.02400000
244.00	3.59280000	3.87900000
246.00	3.72920000	3.72820000
248.00	3.81550000	3.58310000
250.00	3.90870000	3.47770000
252.00	3.97770000	3.34680000
254.00	4.03820000	3.26480000
256.00	4.11700000	3.16110000
258.00	4.19410000	3.06250000
260.00	4.26150000	2.91450000
262.00	4.30190000	2.77640000
264.00	4.30610000	2.63350000
266.00	4.28920000	2.50470000
268.00	4.25720000	2.38320000
270.00	4.20920000	2.29020000
272.00	4.15660000	2.22120000
274.00	4.11170000	2.15390000
276.00	4.06010000	2.11350000
278.00	4.02490000	2.08230000
280.00	3.98860000	2.05880000
282.00	3.95350000	2.04020000
284.00	3.92570000	2.02940000
286.00	3.89800000	2.02450000
288.00	3.87830000	2.02020000
290.00	3.86180000	2.02210000
292.00	3.85520000	2.01920000
294.00	3.84160000	2.02660000
296.00	3.83570000	2.03190000
298.00	3.83310000	2.04190000
300.00	3.83430000	2.05370000
302.00	3.83800000	2.06600000
304.00	3.84440000	2.08390000
306.00	3.85220000	2.10210000
308.00	3.86480000	2.12270000
310.00	3.88620000	2.14640000
312.00	3.90710000	2.17000000
314.00	3.93710000	2.19910000
316.00	3.96280000	2.23880000
318.00	4.00100000	2.27560000
320.00	4.05450000	2.32750000
322.00	4.12230000	2.38300000
324.00	4.21940000	2.43810000
326.00	4.35680000	2.49590000
328.00	4.51620000	2.52810000
330.00	4.71050000	2.52240000
332.00	4.92400000	2.46120000
334.00	5.13740000	2.33650000
336.00	5.30930000	2.15960000
338.00	5.43410000	1.92290000
340.00	5.48250000	1.67820000
342.00	5.47210000	1.44600000
344.00	5.41650000	1.25650000
346.00	5.34430000	1.10320000
348.00	5.26420000	0.97720000
350.00	5.18570000	0.87430000
352.00	5.10710000	0.79360000
354.00	5.03600000	0.72570000
356.00	4.96980000	0.66830000
358.00	4.90580000	0.61510000
360.00	4.85340000	0.57630000
362.00	4.79870000	0.53870000
364.00	4.74870000	0.50330000
366.00	4.70200000	0.47410000
368.00	4.65720000	0.44770000
370.00	4.61530000	0.42620000
372.00	4.57700000	0.40440000
374.00	4.53990000	0.38470000
376.00	4.50360000	0.36580000
378.00	4.47360000	0.35130000
380.00	4.43910000	0.33640000
382.00	4.40460000	0.32030000
384.00	4.37640000	0.30910000
386.00	4.35110000	0.29730000
388.00	4.32430000	0.28670000
390.00	4.30140000	0.27520000
392.00	4.27640000	0.26560000
394.00	4.25700000	0.25650000
396.00	4.23370000	0.24770000
398.00	4.21440000	0.23940000
400.00	4.19380000	0.23140000
402.00	4.17450000	0.22360000
404.00	4.15530000	0.21590000
406.00	4.13790000	0.20880000
408.00	4.12220000	0.20190000
410.00	4.10590000	0.19710000
412.00	4.09050000	0.19100000
414.00	4.07720000	0.18440000
416.00	4.06290000	0.17850000
418.00	4.04860000	0.17270000
420.00	4.03640000	0.16690000
422.00	4.02500000	0.16310000
424.00	4.01280000	0.15670000
426.00	3.99470000	0.14970000
428.00	3.98710000	0.14380000
430.00	3.98030000	0.13600000
432.00	3.96930000	0.12940000
434.00	3.96130000	0.12260000
436.00	3.95260000	0.11550000
438.00	3.94510000	0.10730000
440.00	3.93780000	0.09650000
442.00	3.92870000	0.08530000
444.00	3.91740000	0.07340000
446.00	3.90390000	0.06200000
448.00	3.88970000	0.05290000
450.00	3.87480000	0.04460000
452.00	3.86171100	0.03416900
454.00	3.84688200	0.02573400
456.00	3.83090700	0.01908600
458.00	3.81438100	0.01401100
460.00	3.79790000	0.01030000
462.00	3.78250100	0.00784200
464.00	3.76783300	0.00620900
466.00	3.75404100	0.00494400
468.00	3.74115800	0.00385200
470.00	3.72910000	0.00300000
472.00	3.71800500	0.00229000
474.00	3.70749800	0.00173100
476.00	3.69741700	0.00130600
478.00	3.68750300	0.00098100
480.00	3.67740000	0.00070000
482.00	3.66598300	0.00034100
484.00	3.65469800	0.00002600
486.00	3.64461200	-0.00014400
488.00	3.63591200	-0.00018000
490.00	3.62790000	-0.00020000
492.00	3.62026400	-0.00033000
494.00	3.61286800	-0.00050100
496.00	3.60536000	-0.00072600
498.00	3.59770800	-0.00098100
500.00	3.59020000	-0.00120000
502.00	3.58309300	-0.00124400
504.00	3.57623800	-0.00127200
506.00	3.56964600	-0.00142500
508.00	3.56326900	-0.00169000
510.00	3.55700000	-0.00190000
512.00	3.55061200	-0.00182600
514.00	3.54435200	-0.00167900
516.00	3.53839600	-0.00155400
518.00	3.53276000	-0.00149700
520.00	3.52730000	-0.00150000
522.00	3.52186200	-0.00161100
524.00	3.51657500	-0.00179000
526.00	3.51167800	-0.00206400
528.00	3.50700900	-0.00238000
530.00	3.50200000	-0.00260000
532.00	3.49536900	-0.00244300
534.00	3.48871900	-0.00221000
536.00	3.48335400	-0.00210400
538.00	3.47934100	-0.00215200
540.00	3.47550000	-0.00220000
542.00	3.47057000	-0.00208300
544.00	3.46550500	-0.00195400
546.00	3.46072800	-0.00190100
548.00	3.45631600	-0.00193800
550.00	3.45200000	-0.00200000
552.00	3.44752200	-0.00201200
554.00	3.44313300	-0.00205600
556.00	3.43899300	-0.00224100
558.00	3.43512300	-0.00252200
560.00	3.43140000	-0.00270000
562.00	3.42793500	-0.00241400
564.00	3.42433000	-0.00205700
566.00	3.41996900	-0.00190800
568.00	3.41499400	-0.00199600
570.00	3.41030000	-0.00210000
572.00	3.40733000	-0.00200600
574.00	3.40462300	-0.00187100
576.00	3.40121800	-0.00173600
578.00	3.39700100	-0.00163600
580.00	3.39270000	-0.00160000
582.00	3.38894800	-0.00176600
584.00	3.38535600	-0.00193900
586.00	3.38178000	-0.00193300
588.00	3.37823600	-0.00175400
590.00	3.37490000	-0.00160000
592.00	3.37205300	-0.00174800
594.00	3.36939400	-0.00192800
596.00	3.36675800	-0.00198000
598.00	3.36408100	-0.00187200
600.00	3.36140000	-0.00170000
602.00	3.35870900	-0.00144600
604.00	3.35598200	-0.00124900
606.00	3.35315000	-0.00132100
608.00	3.35024500	-0.00163000
610.00	3.34740000	-0.00190000
612.00	3.34483400	-0.00172600
614.00	3.34234100	-0.00149500
616.00	3.33978700	-0.00144300
618.00	3.33716700	-0.00160200
620.00	3.33460000	-0.00180000
622.00	3.33245400	-0.00193200
624.00	3.33012500	-0.00200000
626.00	3.32685500	-0.00193000
628.00	3.32281400	-0.00173300
630.00	3.31910000	-0.00150000
632.00	3.31730900	-0.00130000
634.00	3.31601000	-0.00114800
636.00	3.31449400	-0.00109800
638.00	3.31253700	-0.00116100
640.00	3.31040000	-0.00130000
642.00	3.30798600	-0.00159300
644.00	3.30556500	-0.00183400
646.00	3.30341600	-0.00177200
648.00	3.30156800	-0.00142800
650.00	3.29980000	-0.00110000
652.00	3.29794300	-0.00118900
654.00	3.29605700	-0.00133800
656.00	3.29414600	-0.00133100
658.00	3.29218100	-0.00115400
660.00	3.29010000	-0.00100000
662.00	3.28765800	-0.00104200
664.00	3.28524100	-0.00118900
666.00	3.28317900	-0.00150900
668.00	3.28151400	-0.00192200
670.00	3.28000000	-0.00220000
672.00	3.27845000	-0.00194400
674.00	3.27694100	-0.00152800
676.00	3.27544800	-0.00110600
678.00	3.27398400	-0.00077900
680.00	3.27260000	-0.00060000
682.00	3.27160800	-0.00083000
684.00	3.27044000	-0.00114900
686.00	3.26843700	-0.00133000
688.00	3.26568200	-0.00133300
690.00	3.26300000	-0.00130000
692.00	3.26138400	-0.00139000
694.00	3.26013600	-0.00142500
696.00	3.25907000	-0.00120700
698.00	3.25805300	-0.00079400
700.00	3.25700000	-0.00050000
702.00	3.25574200	-0.00089000
704.00	3.25430100	-0.00133500
706.00	3.25247300	-0.00135100
708.00	3.25038600	-0.00092200
710.00	3.24850000	-0.00050000
712.00	3.24779900	-0.00065400
714.00	3.24710200	-0.00084700
716.00	3.24537300	-0.00069400
718.00	3.24266300	-0.00020900
720.00	3.24010000	0.00020000
722.00	3.23920800	-0.00004900
724.00	3.23857200	-0.00037400
726.00	3.23731800	-0.00036400
728.00	3.23536100	-0.00000800
730.00	3.23340000	0.00030000
732.00	3.23212400	0.00008200
734.00	3.23102400	-0.00024100
736.00	3.22990800	-0.00047800
738.00	3.22871200	-0.00055100
740.00	3.22750000	-0.00050000
742.00	3.22621000	-0.00013100
744.00	3.22497500	0.00020200
746.00	3.22393800	0.00010100
748.00	3.22309700	-0.00039400
750.00	3.22230000	-0.00080000
752.00	3.22143200	-0.00045000
754.00	3.22050000	0.00005300
756.00	3.21945900	0.00040600
758.00	3.21829000	0.00051500
760.00	3.21700000	0.00050000
762.00	3.21550900	0.00030000
764.00	3.21396600	0.00008400
766.00	3.21249100	0.00002800
768.00	3.21111800	0.00014800
770.00	3.20980000	0.00030000
772.00	3.20848500	0.00035300
774.00	3.20726300	0.00038600
776.00	3.20627000	0.00043000
778.00	3.20546100	0.00047900
780.00	3.20460000	0.00050000
782.00	3.20316600	0.00040600
784.00	3.20183500	0.00032100
786.00	3.20125600	0.00041500
788.00	3.20136800	0.00063400
790.00	3.20140000	0.00070000
792.00	3.20033100	0.00007000
794.00	3.19904200	-0.00061700
796.00	3.19800500	-0.00087200
798.00	3.19729800	-0.00066000
800.00	3.19660000	-0.00040000
802.00	3.19568400	-0.00059200
804.00	3.19465600	-0.00076800
806.00	3.19342300	-0.00055000
808.00	3.19207800	0.00000300
810.00	3.19090000	0.00040000
812.00	3.19040400	-0.00019500
814.00	3.19006800	-0.00085800
816.00	3.18969700	-0.00088000
818.00	3.18910200	-0.00024000
820.00	3.18810000	0.00040000
822.00	3.18598600	0.00018200
824.00	3.18368900	-0.00006100
826.00	3.18174700	0.00021400
828.00	3.18044200	0.00105300
830.00	3.17980000	0.00200000
832.00	3.18023100	0.00258200
834.00	3.18133800	0.00317100
836.00	3.18297800	0.00386900
838.00	3.18501300	0.00477800
840.00	3.18730000	0.00600000
