; Refractive index spectrum for GaP by Aspnes
;
; D.E. Aspnes and A. A. Studna. Dielectric functions and optical parameters of Si, Ge, GaP, GaAs, GaSb, InP, InAs, and InSb from 1.5 to 6.0 eV, <a href="http://dx.doi.org/10.1103/PhysRevB.27.985"><i>Phys. Rev. B</i> <b>27</b>, 985-1009 (1983)</a>
;
; Crysal orientation: <110>; Undoped; Room temperature
;
; lambda/nm    n     k
206.60 	1.30900000 	2.69000000 
210.10 	1.32700000 	2.80300000 
213.80 	1.34800000 	2.93400000 
217.50 	1.38500000 	3.09600000 
221.40 	1.44400000 	3.29700000 
225.40 	1.54300000 	3.55600000 
229.60 	1.77800000 	3.88900000 
233.90 	2.24900000 	4.16800000 
238.40 	2.82500000 	4.17000000 
243.10 	3.34200000 	3.97500000 
248.00 	3.66100000 	3.63100000 
253.00 	3.84400000 	3.35800000 
258.30 	4.06200000 	3.09600000 
263.80 	4.18100000 	2.71200000 
269.50 	4.11300000 	2.37100000 
275.50 	3.97800000 	2.18000000 
281.80 	3.86700000 	2.09000000 
288.30 	3.79200000 	2.05800000 
295.20 	3.75400000 	2.06300000 
302.40 	3.75200000 	2.10000000 
310.00 	3.79000000 	2.17100000 
317.90 	3.89000000 	2.30300000 
326.30 	4.19600000 	2.56200000 
335.10 	5.14900000 	2.45100000 
344.40 	5.40600000 	1.36800000 
354.20 	5.05000000 	0.81900000 
364.70 	4.75100000 	0.56800000 
375.70 	4.51800000 	0.42600000 
387.50 	4.33900000 	0.33700000 
399.90 	4.19600000 	0.27500000 
413.30 	4.08100000 	0.22400000 
427.50 	3.99000000 	0.18300000 
442.80 	3.91900000 	0.11800000 
459.20 	3.80500000 	0.02700000 
476.90 	3.69100000 	0.01100000 
495.90 	3.60500000 	0.00600000 
516.60 	3.53500000 	0.00400000 
539.10 	3.47400000 	0.00200000 
563.60 	3.42100000 	0.00000000 
590.40 	3.37500000 	0.00000000 
619.90 	3.33400000 	0.00000000 
652.50 	3.29500000 	0.00000000 
688.80 	3.26200000 	0.00000000 
729.30 	3.23400000 	0.00000000 
774.90 	3.20900000 	0.00000000 
826.60 	3.17800000 	0.00000000 
