; Refractive index spectrum for H2O by Hale
;
; G. M. Hale and M. R. Querry. Optical Constants of Water in the 200-nm to 200-µm Wavelength Region, <a href="http://dx.doi.org/10.1364/AO.12.000555"><i>Appl. Opt.</i> <b>12</b>, 555-563 (1973)</a>
;
; 25 °C
;
; lambda/nm    n     k
200.00 	1.39600000 	0.00000011 
225.00 	1.37300000 	0.00000005 
250.00 	1.36200000 	0.00000003 
275.00 	1.35400000 	0.00000002 
300.00 	1.34900000 	0.00000002 
325.00 	1.34600000 	0.00000001 
350.00 	1.34300000 	0.00000001 
375.00 	1.34100000 	0.00000000 
400.00 	1.33900000 	0.00000000 
425.00 	1.33800000 	0.00000000 
450.00 	1.33700000 	0.00000000 
475.00 	1.33600000 	0.00000000 
500.00 	1.33500000 	0.00000000 
525.00 	1.33400000 	0.00000000 
550.00 	1.33300000 	0.00000000 
575.00 	1.33300000 	0.00000000 
600.00 	1.33200000 	0.00000001 
625.00 	1.33200000 	0.00000001 
650.00 	1.33100000 	0.00000002 
675.00 	1.33100000 	0.00000002 
700.00 	1.33100000 	0.00000003 
725.00 	1.33000000 	0.00000009 
750.00 	1.33000000 	0.00000016 
775.00 	1.33000000 	0.00000015 
800.00 	1.32900000 	0.00000013 
825.00 	1.32900000 	0.00000018 
850.00 	1.32900000 	0.00000029 
875.00 	1.32800000 	0.00000039 
900.00 	1.32800000 	0.00000049 
925.00 	1.32800000 	0.00000106 
950.00 	1.32700000 	0.00000293 
975.00 	1.32700000 	0.00000348 
1000.00 	1.32700000 	0.00000289 
1200.00 	1.32400000 	0.00000989 
1400.00 	1.32100000 	0.00013800 
1600.00 	1.31700000 	0.00008550 
1800.00 	1.31200000 	0.00011500 
2000.00 	1.30600000 	0.00110000 
