;UO 
;UO Hg57Cd43.TeA:  Values of n and k for cubic mercury cadmium
;UO telluride (Hg0.57Cd0.43Te) from various references in HOCII
;UO (pg. 676).  Reference is 6.  
;UO 
;UO From HANDBOOK OF OPTICAL CONSTANTS IN SOLIDS II edited by Edward D.
;UO Palik. Copyright (c) 1991 by Academic Press, Inc. Reproduced by
;UO permission of the publisher.
;UO ---------------------------------------------------------
;UO        nm        n        k
;UO ---------------------------------------------------------
;N  3
;L    Wavelength[nm]        n        k
225.40	1.41000000	1.94000000
227.10	1.43000000	1.96000000
228.70	1.46000000	1.99000000
230.40	1.49000000	2.01000000
232.20	1.53000000	2.04000000
233.90	1.57000000	2.06000000
235.70	1.61000000	2.06000000
237.50	1.65000000	2.08000000
239.30	1.70000000	2.09000000
241.20	1.74000000	2.11000000
243.10	1.78000000	2.12000000
245.00	1.82000000	2.12000000
247.00	1.87000000	2.13000000
249.00	1.92000000	2.13000000
251.00	1.97000000	2.13000000
253.00	2.01000000	2.13000000
255.10	2.07000000	2.11000000
257.20	2.14000000	2.11000000
259.40	2.20000000	2.08000000
261.60	2.24000000	2.05000000
263.80	2.29000000	2.01000000
266.10	2.32000000	1.98000000
268.40	2.35000000	1.94000000
270.70	2.38000000	1.90000000
273.10	2.38000000	1.87000000
275.50	2.40000000	1.83000000
278.00	2.41000000	1.80000000
280.50	2.41000000	1.77000000
283.10	2.41000000	1.74000000
285.70	2.42000000	1.73000000
288.30	2.42000000	1.71000000
291.00	2.42000000	1.69000000
293.80	2.42000000	1.67000000
296.60	2.42000000	1.67000000
299.50	2.42000000	1.66000000
302.40	2.43000000	1.65000000
305.40	2.43000000	1.64000000
308.40	2.43000000	1.64000000
311.50	2.43000000	1.63000000
314.70	2.43000000	1.63000000
317.90	2.44000000	1.62000000
321.20	2.44000000	1.62000000
324.60	2.44000000	1.62000000
328.00	2.45000000	1.62000000
331.50	2.45000000	1.62000000
335.10	2.46000000	1.62000000
338.70	2.47000000	1.62000000
342.50	2.47000000	1.63000000
346.30	2.48000000	1.64000000
350.20	2.50000000	1.65000000
354.20	2.51000000	1.66000000
358.30	2.53000000	1.67000000
362.50	2.55000000	1.69000000
366.80	2.57000000	1.70000000
371.20	2.60000000	1.72000000
375.70	2.63000000	1.74000000
380.30	2.66000000	1.75000000
385.00	2.71000000	1.76000000
389.90	2.78000000	1.76000000
394.80	2.85000000	1.76000000
399.90	2.89000000	1.74000000
405.20	2.93000000	1.71000000
410.50	2.98000000	1.67000000
416.00	3.01000000	1.64000000
421.70	3.03000000	1.61000000
427.50	3.06000000	1.58000000
433.50	3.08000000	1.56000000
439.60	3.10000000	1.54000000
446.00	3.11000000	1.53000000
452.50	3.13000000	1.52000000
459.20	3.15000000	1.52000000
466.10	3.19000000	1.52000000
473.20	3.25000000	1.53000000
480.50	3.31000000	1.53000000
488.10	3.37000000	1.51000000
495.90	3.47000000	1.47000000
504.00	3.54000000	1.36000000
512.30	3.60000000	1.25000000
520.90	3.63000000	1.17000000
529.80	3.65000000	1.08000000
539.00	3.64000000	1.00000000
548.60	3.63000000	0.92300000
558.50	3.62000000	0.86400000
568.70	3.60000000	0.81400000
579.30	3.59000000	0.76300000
590.40	3.56000000	0.71100000
601.80	3.54000000	0.66400000
613.80	3.52000000	0.63700000
626.20	3.51000000	0.60700000
639.10	3.49000000	0.58000000
652.50	3.47000000	0.55300000
666.60	3.45000000	0.53400000
681.20	3.44000000	0.51900000
696.50	3.42000000	0.50800000
712.50	3.40000000	0.49800000
729.30	3.39000000	0.48700000
