;  Optical constants for Hg
; 
;   taken from:
;
;   'Handbook of Optical Constants of Solids II', Ed. by Edward D. Palik,
;   Academic Press, Inc., 1991.
;   
;    Lambda (nm)            n            k
;-----------------------------------------
103.32	1.06400000	0.46700000
107.81	1.05000000	0.49100000
112.71	1.03900000	0.52300000
114.80	1.03900000	0.53700000
116.96	1.04100000	0.55000000
119.21	1.04500000	0.56100000
121.55	1.05400000	0.56900000
123.98	1.06200000	0.56700000
126.51	1.06100000	0.55700000
129.15	1.04400000	0.54100000
131.89	1.00900000	0.54800000
134.76	0.98800000	0.56800000
137.76	0.97500000	0.58800000
140.89	0.96500000	0.60700000
144.16	0.95600000	0.62400000
147.60	0.95300000	0.63800000
151.19	0.95200000	0.64500000
154.97	0.94600000	0.63900000
158.95	0.92900000	0.62300000
163.13	0.89300000	0.59700000
165.31	0.86000000	0.58000000
167.54	0.81700000	0.57400000
169.84	0.76900000	0.57500000
172.19	0.71700000	0.58400000
174.62	0.66300000	0.58900000
177.11	0.58500000	0.61700000
179.68	0.51000000	0.67600000
182.32	0.45900000	0.75600000
185.05	0.43800000	0.83600000
187.85	0.43600000	0.89800000
190.74	0.42800000	0.94900000
193.72	0.41200000	1.00200000
196.79	0.39900000	1.05800000
199.97	0.39000000	1.11800000
203.25	0.38800000	1.17600000
206.63	0.38600000	1.23200000
210.14	0.38500000	1.28700000
213.76	0.38600000	1.34100000
217.51	0.38600000	1.39600000
221.39	0.38600000	1.45400000
225.42	0.39000000	1.51200000
229.59	0.39400000	1.56900000
238.42	0.40100000	1.68700000
247.96	0.41400000	1.80600000
258.29	0.43100000	1.92900000
269.52	0.45200000	2.05800000
281.77	0.47700000	2.19500000
295.19	0.50700000	2.34100000
309.95	0.54200000	2.50200000
326.26	0.58900000	2.66500000
344.39	0.64400000	2.86000000
364.65	0.71300000	3.07400000
387.44	0.79800000	3.29400000
413.27	0.89800000	3.53800000
442.79	1.02700000	3.80200000
476.85	1.18600000	4.09000000
516.58	1.38400000	4.40700000
563.54	1.62000000	4.75100000
619.90	1.91000000	5.15000000
688.78	2.28400000	5.58200000
774.88	2.74600000	6.05400000
885.57	3.32400000	6.55800000
1033.17	4.05000000	7.08200000
1239.80	4.96200000	7.64300000
1549.75	6.08600000	8.31200000
2066.33	7.57400000	9.19500000
2479.60	8.52800000	9.80500000
