; From SOPRA S.A. http://www.sopra-sa.com/indices.htm
; Filename    Symbol               Range (nm)     Description
; IR3SI5P     Ir3Si5              225     2066    Iridium Silicide
; lambda/nm       n         k
225.43	1.92200000	1.97400000
229.60	1.94800000	2.04700000
233.93	1.96500000	2.05000000
238.43	1.99600000	2.04800000
243.11	2.02400000	2.04400000
247.97	2.05600000	2.04300000
253.03	2.08500000	2.04100000
258.30	2.10800000	2.04200000
263.80	2.13900000	2.05600000
269.53	2.16900000	2.05900000
275.52	2.19600000	2.07100000
281.78	2.22700000	2.08100000
288.34	2.25900000	2.09900000
295.20	2.30300000	2.11700000
302.40	2.33600000	2.13400000
309.96	2.38200000	2.15000000
317.91	2.42000000	2.16600000
326.28	2.46900000	2.18400000
335.10	2.52300000	2.20500000
344.40	2.58100000	2.22600000
354.24	2.66400000	2.26900000
364.66	2.75200000	2.27200000
375.71	2.79200000	2.27800000
387.45	2.85500000	2.28600000
399.95	2.96400000	2.30300000
413.28	3.06400000	2.30400000
427.54	3.15100000	2.28200000
442.80	3.23600000	2.23400000
459.20	3.37700000	2.19300000
476.87	3.42400000	2.12500000
495.94	3.47600000	2.06300000
516.60	3.52900000	2.00200000
539.07	3.55400000	1.93800000
563.57	3.57300000	1.88000000
590.41	3.58000000	1.84600000
619.93	3.58100000	1.81300000
652.55	3.57400000	1.78000000
688.81	3.55800000	1.77500000
729.32	3.56400000	1.78200000
774.91	3.55100000	1.82400000
826.57	3.56400000	1.89200000
885.61	3.64100000	2.00600000
953.73	3.71700000	2.07600000
1033.21	3.76400000	2.09200000
1127.14	3.81000000	2.10900000
1239.85	3.84300000	2.14200000
1377.61	3.90200000	2.17200000
1549.81	3.91200000	2.26300000
1771.22	3.93800000	2.26700000
2066.42	3.93900000	2.67500000
