; From SOPRA S.A. http://www.sopra-sa.com/indices.htm
; Filename    Symbol               Range (nm)     Description
; IR3SI5E     Ir3Si5              151      302    Iridium Silicide
; lambda/nm       n         k
151.20	1.19100000	1.74400000
153.07	1.19700000	1.76800000
154.98	1.20700000	1.79600000
156.94	1.22100000	1.82500000
158.96	1.23900000	1.85300000
161.02	1.26000000	1.88100000
163.14	1.28200000	1.90800000
165.31	1.30700000	1.93300000
167.55	1.33300000	1.95500000
169.84	1.36100000	1.97500000
172.20	1.39200000	1.99500000
174.63	1.42400000	2.01300000
177.12	1.45900000	2.02700000
179.69	1.49500000	2.03700000
182.33	1.53100000	2.04600000
185.05	1.56800000	2.05300000
187.86	1.60400000	2.05700000
190.75	1.64100000	2.05800000
193.73	1.67600000	2.05900000
196.80	1.71000000	2.06200000
199.98	1.74500000	2.06600000
203.25	1.78000000	2.06800000
206.64	1.81700000	2.06700000
210.14	1.85500000	2.06300000
213.77	1.89600000	2.06000000
217.52	1.94000000	2.05700000
221.40	1.98700000	2.05000000
225.43	2.03500000	2.03800000
229.60	2.08400000	2.02200000
233.93	2.13600000	2.00600000
238.43	2.18900000	1.99000000
243.11	2.24000000	1.97500000
247.97	2.28500000	1.96400000
253.03	2.31700000	1.95500000
258.30	2.34200000	1.94700000
263.80	2.36500000	1.93900000
269.53	2.38600000	1.93200000
275.52	2.40100000	1.92500000
281.78	2.41000000	1.92100000
288.34	2.41300000	1.91800000
295.20	2.41000000	1.91700000
302.40	2.40200000	1.91900000
