;  Optical constants for KCl
; 
;   taken from:
;
;   'Handbook of Optical Constants of Solids', Ed. by Edward D. Palik,
;   Academic Press, Inc., 1985.
;   
;    Lambda (nm)            n            k
;-----------------------------------------
100.80	1.57000000	1.12000000
102.46	1.67000000	0.95900000
104.18	1.74000000	0.76700000
105.97	1.73000000	0.64000000
106.88	1.67000000	0.58000000
107.81	1.66000000	0.53000000
107.81	1.69000000	0.52000000
108.75	1.65000000	0.49000000
109.72	1.63000000	0.45000000
109.72	1.62000000	0.42500000
110.70	1.60000000	0.41000000
111.69	1.57000000	0.38000000
111.69	1.55000000	0.37400000
112.71	1.54000000	0.35000000
113.74	1.50000000	0.32500000
113.74	1.50000000	0.36300000
114.80	1.47000000	0.31000000
115.87	1.42000000	0.31500000
115.87	1.40000000	0.33600000
116.96	1.38000000	0.36000000
117.52	1.36000000	0.38000000
118.08	1.37000000	0.38500000
119.21	1.39500000	0.38000000
120.37	1.35000000	0.37000000
121.55	1.30000000	0.35000000
122.75	1.24000000	0.35500000
123.98	1.16000000	0.38000000
125.23	1.05000000	0.41000000
126.51	0.87000000	0.58000000
127.81	0.80000000	0.90000000
129.15	0.94000000	1.27000000
130.51	1.38000000	1.49500000
131.89	1.81000000	1.38000000
133.31	2.07000000	1.13000000
134.76	2.18000000	0.85000000
136.24	2.12000000	0.64000000
137.76	1.99000000	0.50000000
139.30	1.90000000	0.43000000
140.89	1.85000000	0.40000000
142.51	1.81000000	0.39000000
144.16	1.79000000	0.37000000
145.86	1.75000000	0.34500000
147.60	1.73000000	0.34000000
149.37	1.68000000	0.26500000
151.19	1.54000000	0.21500000
153.06	1.36000000	0.25000000
154.97	1.15000000	0.46000000
156.94	1.13000000	0.90000000
158.95	1.30000000	1.36000000
161.01	1.92000000	1.64000000
163.13	2.63000000	1.34000000
164.21	2.92000000	1.10000000
165.31	3.00000000	0.51000000
166.42	2.80000000	0.20000000
167.54	2.61000000	0.06000000
169.84	2.34000000	0.00311000
172.19	2.19000000	0.00017800
174.62	2.08000000	0.00000796
177.11	2.00000000	0.00000085
179.68	1.94000000	0.00000023
179.99	1.89324000	0.00000000
182.00	1.86392000	0.00000000
182.32	1.89000000	0.00000014
184.00	1.83883000	0.00000000
185.05	1.85000000	0.00000000
185.99	1.81705000	0.00000000
187.85	1.82000000	0.00000000
187.99	1.79789000	0.00000000
190.01	1.78087000	0.00000000
190.74	1.80000000	0.00000000
193.72	1.78000000	0.00000000
200.00	1.71739000	0.00000000
209.99	1.67539000	0.00000000
219.98	1.64517000	0.00000000
229.98	1.62226000	0.00000000
239.99	1.60426000	0.00000000
250.01	1.58972000	0.00000000
259.97	1.57775000	0.00000000
269.99	1.56772000	0.00000000
279.99	1.55921000	0.00000000
290.01	1.55191000	0.00000000
299.98	1.54558000	0.00000000
310.03	1.54005000	0.00000000
320.03	1.53518000	0.00000000
330.00	1.53087000	0.00000000
339.95	1.52703000	0.00000000
350.03	1.52358000	0.00000000
359.99	1.52049000	0.00000000
369.98	1.51769000	0.00000000
379.96	1.51515000	0.00000000
390.00	1.51283000	0.00000000
399.94	1.51072000	0.00000000
419.99	1.50701000	0.00000000
439.96	1.50386000	0.00000000
460.04	1.50115000	0.00000000
479.99	1.49882000	0.00000000
499.92	1.49679000	0.00000000
520.05	1.49501000	0.00000000
539.98	1.49344000	0.00000000
559.98	1.49205000	0.00000000
579.89	1.49081000	0.00000000
600.10	1.48969000	0.00000000
619.90	1.48869000	0.00000000
640.06	1.48779000	0.00000000
659.82	1.48697000	0.00000000
680.09	1.48623000	0.00000000
700.06	1.48555000	0.00000000
719.98	1.48493000	0.00000000
740.18	1.48436000	0.00000000
760.15	1.48384000	0.00000000
779.75	1.48336000	0.00000000
799.87	1.48291000	0.00000000
819.97	1.48250000	0.00000000
839.97	1.48212000	0.00000000
859.78	1.48176000	0.00000000
879.91	1.48143000	0.00000000
899.71	1.48111000	0.00000000
919.73	1.48082000	0.00000000
939.95	1.48055000	0.00000000
960.34	1.48030000	0.00000000
980.08	1.48006000	0.00000000
999.84	1.47983000	0.00000000
1100.09	1.47887000	0.00000000
1200.19	1.47813000	0.00000000
1299.99	1.47755000	0.00000000
1399.95	1.47708000	0.00000000
1500.06	1.47668000	0.00000000
1599.95	1.47634000	0.00000000
1699.99	1.47605000	0.00000000
1799.94	1.47580000	0.00000000
1900.08	1.47557000	0.00000000
2000.00	1.47536000	0.00000000
2199.79	1.47498000	0.00000000
2399.92	1.47464000	0.00000000
