; Refractive index spectrum of CURED KemLab KLIR image reversal resist
; Measured at NIST by M. Cangemi using VASE, January 2016
;
; lambda/nm    n          k
300.60 	1.802720 	0.027252 
302.20 	1.797570 	0.026121 
303.80 	1.792660 	0.025032 
305.40 	1.787960 	0.023992 
307.00 	1.783460 	0.023006 
308.60 	1.779120 	0.022081 
310.20 	1.774940 	0.021219 
311.80 	1.770910 	0.020426 
313.40 	1.767010 	0.019705 
315.00 	1.763250 	0.019060 
316.50 	1.759620 	0.018496 
318.10 	1.756130 	0.018013 
319.70 	1.752780 	0.017604 
321.30 	1.749580 	0.017260 
322.90 	1.746510 	0.016969 
324.50 	1.743590 	0.016723 
326.10 	1.740810 	0.016510 
327.70 	1.738150 	0.016324 
329.30 	1.735620 	0.016154 
330.90 	1.733210 	0.015994 
332.50 	1.730910 	0.015835 
334.10 	1.728710 	0.015670 
335.60 	1.726610 	0.015493 
337.20 	1.724580 	0.015301 
338.80 	1.722620 	0.015095 
340.40 	1.720710 	0.014881 
342.00 	1.718870 	0.014659 
343.60 	1.717070 	0.014433 
345.20 	1.715310 	0.014205 
346.80 	1.713600 	0.013978 
348.40 	1.711920 	0.013753 
350.00 	1.710280 	0.013533 
351.60 	1.708680 	0.013320 
353.20 	1.707110 	0.013115 
354.70 	1.705580 	0.012922 
356.30 	1.704080 	0.012740 
357.90 	1.702610 	0.012570 
359.50 	1.701180 	0.012411 
361.10 	1.699780 	0.012263 
362.70 	1.698420 	0.012123 
364.30 	1.697100 	0.011992 
365.90 	1.695800 	0.011867 
367.50 	1.694540 	0.011749 
369.10 	1.693310 	0.011636 
370.70 	1.692100 	0.011528 
372.30 	1.690930 	0.011424 
373.80 	1.689780 	0.011323 
375.40 	1.688660 	0.011224 
377.00 	1.687560 	0.011127 
378.60 	1.686480 	0.011031 
380.20 	1.685420 	0.010936 
381.80 	1.684370 	0.010845 
383.40 	1.683340 	0.010758 
385.00 	1.682320 	0.010679 
386.60 	1.681310 	0.010608 
388.20 	1.680310 	0.010548 
389.80 	1.679320 	0.010501 
391.40 	1.678350 	0.010467 
393.00 	1.677390 	0.010449 
394.50 	1.676440 	0.010448 
396.10 	1.675510 	0.010464 
397.70 	1.674590 	0.010500 
399.30 	1.673690 	0.010557 
400.90 	1.672810 	0.010636 
402.50 	1.671950 	0.010738 
404.10 	1.671110 	0.010863 
405.70 	1.670300 	0.011013 
407.30 	1.669530 	0.011185 
408.90 	1.668790 	0.011376 
410.50 	1.668090 	0.011582 
412.10 	1.667420 	0.011799 
413.70 	1.666800 	0.012025 
415.20 	1.666220 	0.012256 
416.80 	1.665670 	0.012489 
418.40 	1.665170 	0.012721 
420.00 	1.664700 	0.012950 
421.60 	1.664270 	0.013173 
423.20 	1.663880 	0.013386 
424.80 	1.663520 	0.013589 
426.40 	1.663200 	0.013779 
428.00 	1.662900 	0.013953 
429.60 	1.662640 	0.014110 
431.20 	1.662410 	0.014247 
432.80 	1.662200 	0.014363 
434.40 	1.662020 	0.014455 
435.90 	1.661850 	0.014523 
437.50 	1.661700 	0.014566 
439.10 	1.661570 	0.014586 
440.70 	1.661440 	0.014582 
442.30 	1.661330 	0.014555 
443.90 	1.661220 	0.014507 
445.50 	1.661120 	0.014437 
447.10 	1.661030 	0.014346 
448.70 	1.660940 	0.014234 
450.30 	1.660850 	0.014103 
451.90 	1.660770 	0.013952 
453.50 	1.660680 	0.013783 
455.10 	1.660600 	0.013595 
456.60 	1.660510 	0.013389 
458.20 	1.660420 	0.013166 
459.80 	1.660330 	0.012926 
461.40 	1.660230 	0.012669 
463.00 	1.660130 	0.012397 
464.60 	1.660020 	0.012108 
466.20 	1.659900 	0.011805 
467.80 	1.659780 	0.011487 
469.40 	1.659640 	0.011154 
471.00 	1.659490 	0.010808 
472.60 	1.659330 	0.010449 
474.20 	1.659160 	0.010080 
475.80 	1.658970 	0.009702 
477.30 	1.658760 	0.009317 
478.90 	1.658540 	0.008928 
480.50 	1.658300 	0.008534 
482.10 	1.658040 	0.008139 
483.70 	1.657770 	0.007742 
485.30 	1.657490 	0.007347 
486.90 	1.657180 	0.006953 
488.50 	1.656860 	0.006563 
490.10 	1.656530 	0.006178 
491.70 	1.656180 	0.005798 
493.30 	1.655810 	0.005425 
494.90 	1.655430 	0.005061 
496.40 	1.655050 	0.004705 
498.00 	1.654640 	0.004360 
499.60 	1.654230 	0.004026 
501.20 	1.653800 	0.003703 
502.80 	1.653360 	0.003394 
504.40 	1.652920 	0.003099 
506.00 	1.652470 	0.002819 
507.60 	1.652010 	0.002554 
509.20 	1.651550 	0.002305 
510.80 	1.651080 	0.002073 
512.40 	1.650610 	0.001858 
514.00 	1.650140 	0.001660 
515.50 	1.649670 	0.001478 
517.10 	1.649210 	0.001310 
518.70 	1.648750 	0.001157 
520.30 	1.648290 	0.001017 
521.90 	1.647840 	0.000889 
523.50 	1.647400 	0.000773 
525.10 	1.646960 	0.000668 
526.70 	1.646520 	0.000574 
528.30 	1.646100 	0.000490 
529.90 	1.645680 	0.000414 
531.50 	1.645270 	0.000347 
533.00 	1.644860 	0.000288 
534.60 	1.644470 	0.000237 
536.20 	1.644080 	0.000192 
537.80 	1.643700 	0.000154 
539.40 	1.643320 	0.000121 
541.00 	1.642960 	0.000093 
542.60 	1.642600 	0.000070 
544.20 	1.642250 	0.000051 
545.80 	1.641910 	0.000036 
547.40 	1.641570 	0.000025 
549.00 	1.641250 	0.000016 
550.50 	1.640930 	0.000010 
552.10 	1.640610 	0.000005 
553.70 	1.640310 	0.000002 
555.30 	1.640010 	0.000001 
556.90 	1.639720 	0.000000 
558.50 	1.639430 	0.000000 
560.10 	1.639150 	0.000000 
561.70 	1.638880 	0.000000 
563.30 	1.638610 	0.000000 
564.90 	1.638340 	0.000000 
566.40 	1.638080 	0.000000 
568.00 	1.637820 	0.000000 
569.60 	1.637570 	0.000000 
571.20 	1.637320 	0.000000 
572.80 	1.637080 	0.000000 
574.40 	1.636830 	0.000000 
576.00 	1.636600 	0.000000 
577.60 	1.636360 	0.000000 
579.20 	1.636130 	0.000000 
580.80 	1.635900 	0.000000 
582.30 	1.635680 	0.000000 
583.90 	1.635460 	0.000000 
585.50 	1.635240 	0.000000 
587.10 	1.635020 	0.000000 
588.70 	1.634810 	0.000000 
590.30 	1.634600 	0.000000 
591.90 	1.634390 	0.000000 
593.50 	1.634180 	0.000000 
595.10 	1.633980 	0.000000 
596.60 	1.633780 	0.000000 
598.20 	1.633580 	0.000000 
599.80 	1.633380 	0.000000 
601.40 	1.633190 	0.000000 
603.00 	1.632990 	0.000000 
604.60 	1.632810 	0.000000 
606.20 	1.632620 	0.000000 
607.80 	1.632430 	0.000000 
609.40 	1.632250 	0.000000 
610.90 	1.632070 	0.000000 
612.50 	1.631890 	0.000000 
614.10 	1.631710 	0.000000 
615.70 	1.631530 	0.000000 
617.30 	1.631360 	0.000000 
618.90 	1.631190 	0.000000 
620.50 	1.631020 	0.000000 
622.10 	1.630850 	0.000000 
623.70 	1.630680 	0.000000 
625.20 	1.630510 	0.000000 
626.80 	1.630350 	0.000000 
628.40 	1.630190 	0.000000 
630.00 	1.630030 	0.000000 
631.60 	1.629870 	0.000000 
633.20 	1.629710 	0.000000 
634.80 	1.629560 	0.000000 
636.40 	1.629400 	0.000000 
637.90 	1.629250 	0.000000 
639.50 	1.629090 	0.000000 
641.10 	1.628950 	0.000000 
642.70 	1.628800 	0.000000 
644.30 	1.628650 	0.000000 
645.90 	1.628500 	0.000000 
647.50 	1.628360 	0.000000 
649.10 	1.628210 	0.000000 
650.60 	1.628070 	0.000000 
652.20 	1.627930 	0.000000 
653.80 	1.627790 	0.000000 
655.40 	1.627650 	0.000000 
657.00 	1.627510 	0.000000 
658.60 	1.627380 	0.000000 
660.20 	1.627240 	0.000000 
661.70 	1.627110 	0.000000 
663.30 	1.626970 	0.000000 
664.90 	1.626840 	0.000000 
666.50 	1.626710 	0.000000 
668.10 	1.626580 	0.000000 
669.70 	1.626450 	0.000000 
671.30 	1.626320 	0.000000 
672.80 	1.626200 	0.000000 
674.40 	1.626070 	0.000000 
676.00 	1.625950 	0.000000 
677.60 	1.625820 	0.000000 
679.20 	1.625700 	0.000000 
680.80 	1.625580 	0.000000 
682.40 	1.625460 	0.000000 
683.90 	1.625340 	0.000000 
685.50 	1.625220 	0.000000 
687.10 	1.625100 	0.000000 
688.70 	1.624980 	0.000000 
690.30 	1.624870 	0.000000 
691.90 	1.624750 	0.000000 
693.40 	1.624640 	0.000000 
695.00 	1.624520 	0.000000 
696.60 	1.624410 	0.000000 
698.20 	1.624300 	0.000000 
699.80 	1.624190 	0.000000 
701.40 	1.624070 	0.000000 
703.00 	1.623970 	0.000000 
704.50 	1.623860 	0.000000 
706.10 	1.623750 	0.000000 
707.70 	1.623640 	0.000000 
709.30 	1.623530 	0.000000 
710.90 	1.623430 	0.000000 
712.50 	1.623320 	0.000000 
714.00 	1.623220 	0.000000 
715.60 	1.623120 	0.000000 
717.20 	1.623010 	0.000000 
718.80 	1.622910 	0.000000 
720.40 	1.622810 	0.000000 
722.00 	1.622710 	0.000000 
723.50 	1.622610 	0.000000 
725.10 	1.622510 	0.000000 
726.70 	1.622410 	0.000000 
728.30 	1.622310 	0.000000 
729.90 	1.622210 	0.000000 
731.40 	1.622110 	0.000000 
733.00 	1.622020 	0.000000 
734.60 	1.621920 	0.000000 
736.20 	1.621830 	0.000000 
737.80 	1.621730 	0.000000 
739.40 	1.621640 	0.000000 
740.90 	1.621540 	0.000000 
742.50 	1.621450 	0.000000 
744.10 	1.621360 	0.000000 
745.70 	1.621270 	0.000000 
747.30 	1.621180 	0.000000 
748.80 	1.621090 	0.000000 
750.40 	1.620990 	0.000000 
752.00 	1.620910 	0.000000 
753.60 	1.620820 	0.000000 
755.20 	1.620730 	0.000000 
756.70 	1.620640 	0.000000 
758.30 	1.620550 	0.000000 
759.90 	1.620470 	0.000000 
761.50 	1.620380 	0.000000 
763.10 	1.620290 	0.000000 
764.60 	1.620210 	0.000000 
766.20 	1.620120 	0.000000 
767.80 	1.620040 	0.000000 
769.40 	1.619950 	0.000000 
771.00 	1.619870 	0.000000 
772.50 	1.619790 	0.000000 
774.10 	1.619700 	0.000000 
775.70 	1.619620 	0.000000 
777.30 	1.619540 	0.000000 
778.90 	1.619460 	0.000000 
780.40 	1.619380 	0.000000 
782.00 	1.619300 	0.000000 
783.60 	1.619220 	0.000000 
785.20 	1.619140 	0.000000 
786.80 	1.619060 	0.000000 
788.30 	1.618980 	0.000000 
789.90 	1.618900 	0.000000 
791.50 	1.618820 	0.000000 
793.10 	1.618750 	0.000000 
794.60 	1.618670 	0.000000 
796.20 	1.618590 	0.000000 
797.80 	1.618510 	0.000000 
799.40 	1.618440 	0.000000 
801.00 	1.618360 	0.000000 
802.50 	1.618290 	0.000000 
804.10 	1.618210 	0.000000 
805.70 	1.618140 	0.000000 
807.30 	1.618070 	0.000000 
808.80 	1.617990 	0.000000 
810.40 	1.617920 	0.000000 
812.00 	1.617840 	0.000000 
813.60 	1.617770 	0.000000 
815.10 	1.617700 	0.000000 
816.70 	1.617630 	0.000000 
818.30 	1.617560 	0.000000 
819.90 	1.617490 	0.000000 
821.40 	1.617420 	0.000000 
823.00 	1.617340 	0.000000 
824.60 	1.617270 	0.000000 
826.20 	1.617200 	0.000000 
827.70 	1.617130 	0.000000 
829.30 	1.617060 	0.000000 
830.90 	1.617000 	0.000000 
832.50 	1.616930 	0.000000 
834.00 	1.616860 	0.000000 
835.60 	1.616790 	0.000000 
837.20 	1.616720 	0.000000 
838.80 	1.616660 	0.000000 
840.30 	1.616590 	0.000000 
841.90 	1.616520 	0.000000 
843.50 	1.616450 	0.000000 
845.10 	1.616390 	0.000000 
846.60 	1.616320 	0.000000 
848.20 	1.616260 	0.000000 
849.80 	1.616190 	0.000000 
851.30 	1.616130 	0.000000 
852.90 	1.616060 	0.000000 
854.50 	1.616000 	0.000000 
856.10 	1.615930 	0.000000 
857.60 	1.615870 	0.000000 
859.20 	1.615800 	0.000000 
860.80 	1.615740 	0.000000 
862.40 	1.615680 	0.000000 
863.90 	1.615620 	0.000000 
865.50 	1.615550 	0.000000 
867.10 	1.615490 	0.000000 
868.60 	1.615430 	0.000000 
870.20 	1.615370 	0.000000 
871.80 	1.615300 	0.000000 
873.30 	1.615240 	0.000000 
874.90 	1.615180 	0.000000 
876.50 	1.615120 	0.000000 
878.10 	1.615060 	0.000000 
879.60 	1.615000 	0.000000 
881.20 	1.614940 	0.000000 
882.80 	1.614880 	0.000000 
884.30 	1.614820 	0.000000 
885.90 	1.614760 	0.000000 
887.50 	1.614700 	0.000000 
889.00 	1.614640 	0.000000 
890.60 	1.614580 	0.000000 
892.20 	1.614520 	0.000000 
893.80 	1.614460 	0.000000 
895.30 	1.614410 	0.000000 
896.90 	1.614350 	0.000000 
898.50 	1.614290 	0.000000 
900.00 	1.614230 	0.000000 
901.60 	1.614170 	0.000000 
903.20 	1.614120 	0.000000 
904.70 	1.614060 	0.000000 
906.30 	1.614000 	0.000000 
907.90 	1.613940 	0.000000 
909.40 	1.613890 	0.000000 
911.00 	1.613830 	0.000000 
912.60 	1.613770 	0.000000 
914.10 	1.613720 	0.000000 
915.70 	1.613660 	0.000000 
917.30 	1.613610 	0.000000 
918.80 	1.613550 	0.000000 
920.40 	1.613500 	0.000000 
922.00 	1.613440 	0.000000 
923.50 	1.613390 	0.000000 
925.10 	1.613330 	0.000000 
926.70 	1.613280 	0.000000 
928.20 	1.613220 	0.000000 
929.80 	1.613170 	0.000000 
931.40 	1.613120 	0.000000 
932.90 	1.613060 	0.000000 
934.50 	1.613010 	0.000000 
936.00 	1.612950 	0.000000 
937.60 	1.612900 	0.000000 
939.20 	1.612850 	0.000000 
940.70 	1.612790 	0.000000 
942.30 	1.612740 	0.000000 
943.90 	1.612690 	0.000000 
945.40 	1.612640 	0.000000 
947.00 	1.612580 	0.000000 
948.60 	1.612530 	0.000000 
950.10 	1.612480 	0.000000 
951.70 	1.612430 	0.000000 
953.20 	1.612380 	0.000000 
954.80 	1.612320 	0.000000 
956.40 	1.612270 	0.000000 
957.90 	1.612220 	0.000000 
959.50 	1.612170 	0.000000 
961.00 	1.612120 	0.000000 
962.60 	1.612070 	0.000000 
964.20 	1.612020 	0.000000 
965.70 	1.611970 	0.000000 
967.30 	1.611920 	0.000000 
968.80 	1.611870 	0.000000 
970.40 	1.611810 	0.000000 
972.00 	1.611760 	0.000000 
973.50 	1.611720 	0.000000 
975.10 	1.611660 	0.000000 
976.60 	1.611620 	0.000000 
978.20 	1.611570 	0.000000 
979.80 	1.611520 	0.000000 
981.30 	1.611470 	0.000000 
982.90 	1.611420 	0.000000 
984.40 	1.611370 	0.000000 
986.00 	1.611320 	0.000000 
987.60 	1.611270 	0.000000 
989.10 	1.611220 	0.000000 
990.70 	1.611170 	0.000000 
992.20 	1.611120 	0.000000 
993.80 	1.611080 	0.000000 
995.30 	1.611030 	0.000000 
996.90 	1.610980 	0.000000 
998.50 	1.610930 	0.000000 
1011.80 	1.610520 	0.000000 
1015.20 	1.610420 	0.000000 
1018.60 	1.610320 	0.000000 
1022.00 	1.610220 	0.000000 
1025.40 	1.610120 	0.000000 
1028.80 	1.610020 	0.000000 
1032.20 	1.609920 	0.000000 
1035.60 	1.609820 	0.000000 
1039.00 	1.609720 	0.000000 
1042.40 	1.609620 	0.000000 
1045.80 	1.609520 	0.000000 
1049.20 	1.609420 	0.000000 
1052.60 	1.609320 	0.000000 
1056.00 	1.609230 	0.000000 
1059.40 	1.609130 	0.000000 
1062.80 	1.609030 	0.000000 
1066.20 	1.608940 	0.000000 
1069.60 	1.608840 	0.000000 
1073.00 	1.608750 	0.000000 
1076.40 	1.608650 	0.000000 
1079.80 	1.608560 	0.000000 
1083.20 	1.608460 	0.000000 
1086.60 	1.608370 	0.000000 
1090.00 	1.608270 	0.000000 
1093.40 	1.608180 	0.000000 
1096.80 	1.608080 	0.000000 
1100.20 	1.607990 	0.000000 
1103.60 	1.607900 	0.000000 
1107.00 	1.607810 	0.000000 
1110.40 	1.607710 	0.000000 
1113.80 	1.607620 	0.000000 
1117.30 	1.607530 	0.000000 
1120.70 	1.607440 	0.000000 
1124.10 	1.607350 	0.000000 
1127.50 	1.607260 	0.000000 
1130.90 	1.607160 	0.000000 
1134.30 	1.607070 	0.000000 
1137.70 	1.606980 	0.000000 
1141.10 	1.606890 	0.000000 
1144.50 	1.606800 	0.000000 
1147.90 	1.606710 	0.000000 
1151.40 	1.606620 	0.000000 
1154.80 	1.606530 	0.000000 
1158.20 	1.606440 	0.000000 
1161.60 	1.606350 	0.000000 
1165.00 	1.606270 	0.000000 
1168.40 	1.606180 	0.000000 
1171.80 	1.606090 	0.000000 
1175.30 	1.606000 	0.000000 
1178.70 	1.605910 	0.000000 
1182.10 	1.605820 	0.000000 
1185.50 	1.605730 	0.000000 
1188.90 	1.605650 	0.000000 
1192.30 	1.605560 	0.000000 
1195.80 	1.605470 	0.000000 
1199.20 	1.605380 	0.000000 
1202.60 	1.605300 	0.000000 
1206.00 	1.605210 	0.000000 
1209.40 	1.605120 	0.000000 
1212.90 	1.605040 	0.000000 
1216.30 	1.604950 	0.000000 
1219.70 	1.604860 	0.000000 
1223.10 	1.604780 	0.000000 
1226.50 	1.604690 	0.000000 
1230.00 	1.604600 	0.000000 
1233.40 	1.604520 	0.000000 
1236.80 	1.604430 	0.000000 
1240.20 	1.604340 	0.000000 
1243.70 	1.604260 	0.000000 
1247.10 	1.604170 	0.000000 
1250.50 	1.604090 	0.000000 
1253.90 	1.604000 	0.000000 
1257.40 	1.603920 	0.000000 
1260.80 	1.603830 	0.000000 
1264.20 	1.603740 	0.000000 
1267.60 	1.603660 	0.000000 
1271.10 	1.603570 	0.000000 
1274.50 	1.603490 	0.000000 
1277.90 	1.603400 	0.000000 
1281.40 	1.603320 	0.000000 
1284.80 	1.603230 	0.000000 
1288.20 	1.603150 	0.000000 
1291.60 	1.603060 	0.000000 
1295.10 	1.602980 	0.000000 
1298.50 	1.602890 	0.000000 
1301.90 	1.602810 	0.000000 
1305.40 	1.602720 	0.000000 
1308.80 	1.602640 	0.000000 
1312.20 	1.602560 	0.000000 
1315.70 	1.602470 	0.000000 
1319.10 	1.602390 	0.000000 
1322.50 	1.602300 	0.000000 
1326.00 	1.602220 	0.000000 
1329.40 	1.602130 	0.000000 
1332.90 	1.602050 	0.000000 
1336.30 	1.601970 	0.000000 
1339.70 	1.601880 	0.000000 
1343.20 	1.601800 	0.000000 
1346.60 	1.601710 	0.000000 
1350.00 	1.601630 	0.000000 
1353.50 	1.601540 	0.000000 
1356.90 	1.601460 	0.000000 
1360.40 	1.601370 	0.000000 
1363.80 	1.601290 	0.000000 
1367.20 	1.601210 	0.000000 
1370.70 	1.601120 	0.000000 
1374.10 	1.601040 	0.000000 
1377.60 	1.600950 	0.000000 
1381.00 	1.600870 	0.000000 
1384.40 	1.600780 	0.000000 
1387.90 	1.600700 	0.000000 
1391.30 	1.600620 	0.000000 
1394.80 	1.600530 	0.000000 
1398.20 	1.600450 	0.000000 
1401.70 	1.600360 	0.000000 
1405.10 	1.600280 	0.000000 
1408.60 	1.600200 	0.000000 
1412.00 	1.600110 	0.000000 
1415.50 	1.600030 	0.000000 
1418.90 	1.599940 	0.000000 
1422.40 	1.599860 	0.000000 
1425.80 	1.599770 	0.000000 
1429.20 	1.599690 	0.000000 
1432.70 	1.599600 	0.000000 
1436.10 	1.599520 	0.000000 
1439.60 	1.599440 	0.000000 
1443.00 	1.599350 	0.000000 
1446.50 	1.599270 	0.000000 
1450.00 	1.599180 	0.000000 
1453.40 	1.599100 	0.000000 
1456.90 	1.599010 	0.000000 
1460.30 	1.598930 	0.000000 
1463.80 	1.598840 	0.000000 
1467.20 	1.598760 	0.000000 
1470.70 	1.598680 	0.000000 
1474.10 	1.598590 	0.000000 
1477.60 	1.598510 	0.000000 
1481.00 	1.598420 	0.000000 
1484.50 	1.598340 	0.000000 
1487.90 	1.598250 	0.000000 
1491.40 	1.598170 	0.000000 
1494.90 	1.598080 	0.000000 
1498.30 	1.598000 	0.000000 
1501.80 	1.597910 	0.000000 
1505.20 	1.597830 	0.000000 
1508.70 	1.597740 	0.000000 
1512.20 	1.597650 	0.000000 
1515.60 	1.597570 	0.000000 
1519.10 	1.597480 	0.000000 
1522.50 	1.597400 	0.000000 
1526.00 	1.597310 	0.000000 
1529.50 	1.597230 	0.000000 
1532.90 	1.597140 	0.000000 
1536.40 	1.597050 	0.000000 
1539.80 	1.596970 	0.000000 
1543.30 	1.596880 	0.000000 
1546.80 	1.596800 	0.000000 
1550.20 	1.596710 	0.000000 
1553.70 	1.596630 	0.000000 
1557.20 	1.596540 	0.000000 
1560.60 	1.596450 	0.000000 
1564.10 	1.596370 	0.000000 
1567.60 	1.596280 	0.000000 
1571.00 	1.596190 	0.000000 
1574.50 	1.596110 	0.000000 
1578.00 	1.596020 	0.000000 
1581.40 	1.595930 	0.000000 
1584.90 	1.595850 	0.000000 
1588.40 	1.595760 	0.000000 
1591.80 	1.595670 	0.000000 
1595.30 	1.595590 	0.000000 
1598.80 	1.595500 	0.000000 
1602.30 	1.595410 	0.000000 
1605.70 	1.595330 	0.000000 
1609.20 	1.595240 	0.000000 
1612.70 	1.595150 	0.000000 
1616.20 	1.595060 	0.000000 
1619.60 	1.594980 	0.000000 
1623.10 	1.594890 	0.000000 
1626.60 	1.594800 	0.000000 
1630.00 	1.594710 	0.000000 
1633.50 	1.594620 	0.000000 
1637.00 	1.594540 	0.000000 
1640.50 	1.594450 	0.000000 
1644.00 	1.594360 	0.000000 
1647.40 	1.594270 	0.000000 
1650.90 	1.594180 	0.000000 
1654.40 	1.594100 	0.000000 
1657.90 	1.594010 	0.000000 
1661.30 	1.593920 	0.000000 
1664.80 	1.593830 	0.000000 
1668.30 	1.593740 	0.000000 
1671.80 	1.593650 	0.000000 
1675.30 	1.593560 	0.000000 
1678.70 	1.593470 	0.000000 
1682.20 	1.593380 	0.000000 
1685.70 	1.593290 	0.000000 
1689.20 	1.593200 	0.000000 
