; Refractive index spectrum for Mg by Hagemann
;
; 1) H.-J. Hagemann et al.. Optical constants from the far infrared to the x-ray region: Mg, Al, Cu, Ag, Au, Bi, C, and Al<sub>2</sub>O<sub>3</sub>, <a href="http://dx.doi.org/10.1364/JOSA.65.000742"><i>J. Opt. Soc. Am.</i> <b>65</b>, 742-744 (1975)</a><br>2) H.-J. Hagemann et al.. <a href="http://refractiveindex.info/download/data/1974/Hagemann 1974 - DESY report SR-74-7.pdf">DESY report SR-74/7 (1974)</a>
;
; lambda/nm    n     k
103.30 	0.47700000 	0.14500000 
107.80 	0.40400000 	0.15800000 
112.70 	0.29300000 	0.17600000 
118.10 	0.11000000 	0.29600000 
124.00 	0.07230000 	0.49900000 
130.50 	0.06910000 	0.64700000 
137.80 	0.07170000 	0.78700000 
145.90 	0.08580000 	0.92600000 
155.00 	0.11500000 	1.06000000 
165.30 	0.15500000 	1.19000000 
169.80 	0.17100000 	1.23000000 
174.60 	0.18400000 	1.27000000 
179.70 	0.19400000 	1.31000000 
185.10 	0.19900000 	1.35000000 
190.70 	0.19700000 	1.39000000 
196.80 	0.18700000 	1.44000000 
203.30 	0.16600000 	1.49000000 
210.10 	0.14000000 	1.56000000 
217.50 	0.12100000 	1.64000000 
221.40 	0.11200000 	1.74000000 
248.00 	0.11100000 	2.00000000 
310.00 	0.13200000 	2.63000000 
413.30 	0.18400000 	3.66000000 
619.90 	0.38200000 	5.74000000 
826.60 	0.79100000 	7.96000000 
1240.00 	2.99700000 	12.80000000 
1378.00 	4.77600000 	14.50000000 
1550.00 	8.26900000 	15.50000000 
1771.00 	11.20000000 	10.20000000 
1907.00 	8.80900000 	8.98000000 
2066.00 	6.05600000 	9.33000000 
