; Refractive index spectrum for Mn by Johnson
;
; P. B. Johnson and R. W. Christy. Optical constants of transition metals: Ti, V, Cr, Mn, Fe, Co, Ni, and Pd, <a href="http://dx.doi.org/10.1103/PhysRevB.9.5056"><i>Phys. Rev. B</i> <b>9</b>, 5056-5070 (1974)</a>
;
; Room temperature
;
; lambda/nm    n     k
188.00 	1.48000000 	1.47000000 
192.00 	1.55000000 	1.50000000 
195.00 	1.59000000 	1.52000000 
199.00 	1.62000000 	1.55000000 
203.00 	1.63000000 	1.58000000 
207.00 	1.67000000 	1.61000000 
212.00 	1.70000000 	1.64000000 
216.00 	1.72000000 	1.67000000 
221.00 	1.73000000 	1.70000000 
226.00 	1.74000000 	1.73000000 
231.00 	1.78000000 	1.76000000 
237.00 	1.81000000 	1.79000000 
243.00 	1.82000000 	1.82000000 
249.00 	1.82000000 	1.86000000 
255.00 	1.83000000 	1.91000000 
262.00 	1.84000000 	1.94000000 
269.00 	1.85000000 	1.99000000 
276.00 	1.86000000 	2.03000000 
284.00 	1.85000000 	2.08000000 
292.00 	1.85000000 	2.14000000 
301.00 	1.86000000 	2.19000000 
311.00 	1.86000000 	2.25000000 
320.00 	1.86000000 	2.32000000 
332.00 	1.86000000 	2.38000000 
342.00 	1.87000000 	2.45000000 
354.00 	1.89000000 	2.51000000 
368.00 	1.89000000 	2.59000000 
381.00 	1.92000000 	2.67000000 
397.00 	1.96000000 	2.74000000 
413.00 	2.00000000 	2.82000000 
431.00 	2.06000000 	2.90000000 
451.00 	2.11000000 	2.98000000 
471.00 	2.19000000 	3.06000000 
496.00 	2.25000000 	3.14000000 
521.00 	2.32000000 	3.23000000 
549.00 	2.39000000 	3.33000000 
582.00 	2.47000000 	3.43000000 
617.00 	2.51000000 	3.54000000 
659.00 	2.56000000 	3.65000000 
704.00 	2.62000000 	3.78000000 
756.00 	2.70000000 	3.91000000 
821.00 	2.83000000 	4.03000000 
892.00 	2.97000000 	4.18000000 
984.00 	3.10000000 	4.35000000 
1088.00 	3.30000000 	4.53000000 
1216.00 	3.48000000 	4.74000000 
1393.00 	3.65000000 	5.02000000 
1610.00 	3.78000000 	5.41000000 
1937.00 	3.89000000 	5.95000000 
