; Refractive index spectrum for Na by Inagaki
;
; T. Inagaki et al. Optical properties of solid Na and Li between 0.6 and 3.8 eV, <a href="http://dx.doi.org/10.1103/PhysRevB.13.2305"><i>Phs. Rev. B</i> <b>13</b>, 2305-2313 (1976)</a>
;
; lambda/nm    n     k
326.00 	0.04640000 	1.08000000 
335.00 	0.04950000 	1.14000000 
344.00 	0.05390000 	1.19000000 
354.00 	0.05830000 	1.25000000 
365.00 	0.06280000 	1.32000000 
376.00 	0.06890000 	1.38000000 
387.00 	0.07420000 	1.44000000 
400.00 	0.07940000 	1.50000000 
413.00 	0.08120000 	1.56000000 
428.00 	0.08150000 	1.64000000 
443.00 	0.07910000 	1.71000000 
459.00 	0.07450000 	1.80000000 
477.00 	0.06890000 	1.88000000 
496.00 	0.06400000 	1.99000000 
517.00 	0.05870000 	2.10000000 
539.00 	0.05390000 	2.23000000 
564.00 	0.04950000 	2.36000000 
590.00 	0.04640000 	2.48000000 
620.00 	0.04420000 	2.62000000 
653.00 	0.04240000 	2.78000000 
689.00 	0.04180000 	2.96000000 
729.00 	0.04180000 	3.15000000 
775.00 	0.04240000 	3.40000000 
827.00 	0.04470000 	3.64000000 
886.00 	0.04800000 	3.87000000 
954.00 	0.05150000 	4.23000000 
1033.00 	0.05740000 	4.62000000 
1127.00 	0.06600000 	5.05000000 
1240.00 	0.07870000 	5.59000000 
1378.00 	0.09490000 	6.24000000 
1550.00 	0.11700000 	7.02000000 
1771.00 	0.14600000 	8.09000000 
2066.00 	0.19800000 	9.46000000 
