; Refractive index spectrum for Nb2O5 by Lemarchand
;
; F. Lemarchand, <i>private communications</i> (2013). Measurement method described in:<br>L. Gao, F. Lemarchand, and M. Lequime. Exploitation of multiple incidences spectrometric measurements for thin film reverse engineering, <a href="http://dx.doi.org/10.1364/OE.20.015734"><i>Opt. Express</i> <b>20</b>, 15734-15751 (2012)</a>
;
; 500-nm monolayer deposited on BK7 substrate using the magnetron sputtering technique.
;
; lambda/nm    n     k
250.00 	3.04958000 	1.06396500 
255.00 	3.07913200 	0.99075700 
260.00 	3.10252000 	0.91704500 
265.00 	3.11980900 	0.84342400 
270.00 	3.13113000 	0.77046600 
275.00 	3.13667400 	0.69871400 
280.00 	3.13668500 	0.62867300 
285.00 	3.13145200 	0.56081000 
290.00 	3.12130100 	0.49554600 
295.00 	3.10658900 	0.43326000 
300.00 	3.08769500 	0.37428600 
305.00 	3.06501400 	0.31891700 
310.00 	3.03895700 	0.26740800 
315.00 	3.00994200 	0.21997800 
320.00 	2.97840000 	0.17681600 
325.00 	2.94476900 	0.13808300 
330.00 	2.90950400 	0.10391900 
335.00 	2.87307800 	0.07444300 
340.00 	2.83601800 	0.05085700 
345.00 	2.79887700 	0.03499900 
350.00 	2.76224200 	0.02435800 
355.00 	2.72689900 	0.01713100 
360.00 	2.69398000 	0.01216400 
365.00 	2.66590700 	0.00870900 
370.00 	2.64254700 	0.00628400 
375.00 	2.62200700 	0.00457200 
380.00 	2.60358400 	0.00335200 
385.00 	2.58686400 	0.00247800 
390.00 	2.57156200 	0.00184500 
395.00 	2.55747100 	0.00138400 
400.00 	2.54442800 	0.00104600 
405.00 	2.53230400 	0.00079500 
410.00 	2.52099500 	0.00060900 
415.00 	2.51041400 	0.00046900 
420.00 	2.50048500 	0.00036400 
425.00 	2.49114700 	0.00028400 
430.00 	2.48234600 	0.00022300 
435.00 	2.47403400 	0.00017600 
440.00 	2.46617000 	0.00014000 
445.00 	2.45871800 	0.00011100 
450.00 	2.45164500 	0.00008900 
455.00 	2.44492300 	0.00007200 
460.00 	2.43852600 	0.00005800 
465.00 	2.43243000 	0.00004700 
470.00 	2.42661600 	0.00003900 
475.00 	2.42106300 	0.00003200 
480.00 	2.41575500 	0.00002600 
485.00 	2.41067600 	0.00002200 
490.00 	2.40581200 	0.00001800 
495.00 	2.40115000 	0.00001500 
500.00 	2.39667700 	0.00001300 
505.00 	2.39238300 	0.00001000 
510.00 	2.38825800 	0.00000900 
515.00 	2.38429100 	0.00000700 
520.00 	2.38047500 	0.00000600 
525.00 	2.37680100 	0.00000500 
530.00 	2.37326100 	0.00000500 
535.00 	2.36984900 	0.00000400 
540.00 	2.36655900 	0.00000300 
545.00 	2.36338300 	0.00000300 
550.00 	2.36031700 	0.00000300 
555.00 	2.35735500 	0.00000200 
560.00 	2.35449200 	0.00000200 
565.00 	2.35172400 	0.00000200 
570.00 	2.34904600 	0.00000100 
575.00 	2.34645400 	0.00000100 
580.00 	2.34394400 	0.00000100 
585.00 	2.34151300 	0.00000100 
590.00 	2.33915700 	0.00000100 
595.00 	2.33687300 	0.00000100 
600.00 	2.33465700 	0.00000100 
605.00 	2.33250800 	0.00000100 
610.00 	2.33042200 	0.00000100 
615.00 	2.32839600 	0.00000000 
620.00 	2.32642900 	0.00000000 
625.00 	2.32451800 	0.00000000 
630.00 	2.32266000 	0.00000000 
635.00 	2.32085400 	0.00000000 
640.00 	2.31909800 	0.00000000 
645.00 	2.31738900 	0.00000000 
650.00 	2.31572600 	0.00000000 
655.00 	2.31410800 	0.00000000 
660.00 	2.31253200 	0.00000000 
665.00 	2.31099800 	0.00000000 
670.00 	2.30950300 	0.00000000 
675.00 	2.30804600 	0.00000000 
680.00 	2.30662600 	0.00000000 
685.00 	2.30524200 	0.00000000 
690.00 	2.30389200 	0.00000000 
695.00 	2.30257500 	0.00000000 
700.00 	2.30129100 	0.00000000 
705.00 	2.30003700 	0.00000000 
710.00 	2.29881400 	0.00000000 
715.00 	2.29761900 	0.00000000 
720.00 	2.29645300 	0.00000000 
725.00 	2.29531300 	0.00000000 
730.00 	2.29420000 	0.00000000 
735.00 	2.29311300 	0.00000000 
740.00 	2.29205000 	0.00000000 
745.00 	2.29101100 	0.00000000 
750.00 	2.28999600 	0.00000000 
755.00 	2.28900200 	0.00000000 
760.00 	2.28803100 	0.00000000 
765.00 	2.28708100 	0.00000000 
770.00 	2.28615100 	0.00000000 
775.00 	2.28524100 	0.00000000 
780.00 	2.28435100 	0.00000000 
785.00 	2.28347900 	0.00000000 
790.00 	2.28262600 	0.00000000 
795.00 	2.28179000 	0.00000000 
800.00 	2.28097200 	0.00000000 
805.00 	2.28017000 	0.00000000 
810.00 	2.27938400 	0.00000000 
815.00 	2.27861500 	0.00000000 
820.00 	2.27786100 	0.00000000 
825.00 	2.27712100 	0.00000000 
830.00 	2.27639700 	0.00000000 
835.00 	2.27568600 	0.00000000 
840.00 	2.27499000 	0.00000000 
845.00 	2.27430600 	0.00000000 
850.00 	2.27363600 	0.00000000 
855.00 	2.27297900 	0.00000000 
860.00 	2.27233400 	0.00000000 
865.00 	2.27170100 	0.00000000 
870.00 	2.27108000 	0.00000000 
875.00 	2.27047100 	0.00000000 
880.00 	2.26987200 	0.00000000 
885.00 	2.26928500 	0.00000000 
890.00 	2.26870800 	0.00000000 
895.00 	2.26814200 	0.00000000 
900.00 	2.26758600 	0.00000000 
905.00 	2.26704000 	0.00000000 
910.00 	2.26650300 	0.00000000 
915.00 	2.26597600 	0.00000000 
920.00 	2.26545800 	0.00000000 
925.00 	2.26494900 	0.00000000 
930.00 	2.26444900 	0.00000000 
935.00 	2.26395700 	0.00000000 
940.00 	2.26347400 	0.00000000 
945.00 	2.26299900 	0.00000000 
950.00 	2.26253200 	0.00000000 
955.00 	2.26207300 	0.00000000 
960.00 	2.26162100 	0.00000000 
965.00 	2.26117700 	0.00000000 
970.00 	2.26074100 	0.00000000 
975.00 	2.26031100 	0.00000000 
980.00 	2.25988800 	0.00000000 
985.00 	2.25947200 	0.00000000 
990.00 	2.25906300 	0.00000000 
995.00 	2.25866100 	0.00000000 
1000.00 	2.25826500 	0.00000000 
1005.00 	2.25787500 	0.00000000 
1010.00 	2.25749100 	0.00000000 
1015.00 	2.25711300 	0.00000000 
1020.00 	2.25674100 	0.00000000 
1025.00 	2.25637500 	0.00000000 
1030.00 	2.25601400 	0.00000000 
1035.00 	2.25565900 	0.00000000 
1040.00 	2.25531000 	0.00000000 
1045.00 	2.25496500 	0.00000000 
1050.00 	2.25462600 	0.00000000 
1055.00 	2.25429200 	0.00000000 
1060.00 	2.25396300 	0.00000000 
1065.00 	2.25363900 	0.00000000 
1070.00 	2.25331900 	0.00000000 
1075.00 	2.25300500 	0.00000000 
1080.00 	2.25269400 	0.00000000 
1085.00 	2.25238900 	0.00000000 
1090.00 	2.25208700 	0.00000000 
1095.00 	2.25179000 	0.00000000 
1100.00 	2.25149800 	0.00000000 
1105.00 	2.25120900 	0.00000000 
1110.00 	2.25092500 	0.00000000 
1115.00 	2.25064400 	0.00000000 
1120.00 	2.25036800 	0.00000000 
1125.00 	2.25009500 	0.00000000 
1130.00 	2.24982600 	0.00000000 
1135.00 	2.24956100 	0.00000000 
1140.00 	2.24930000 	0.00000000 
1145.00 	2.24904200 	0.00000000 
1150.00 	2.24878700 	0.00000000 
1155.00 	2.24853600 	0.00000000 
1160.00 	2.24828900 	0.00000000 
1165.00 	2.24804400 	0.00000000 
1170.00 	2.24780300 	0.00000000 
1175.00 	2.24756600 	0.00000000 
1180.00 	2.24733100 	0.00000000 
1185.00 	2.24709900 	0.00000000 
1190.00 	2.24687100 	0.00000000 
1195.00 	2.24664500 	0.00000000 
1200.00 	2.24642300 	0.00000000 
1205.00 	2.24620300 	0.00000000 
1210.00 	2.24598600 	0.00000000 
1215.00 	2.24577200 	0.00000000 
1220.00 	2.24556000 	0.00000000 
1225.00 	2.24535200 	0.00000000 
1230.00 	2.24514600 	0.00000000 
1235.00 	2.24494200 	0.00000000 
1240.00 	2.24474100 	0.00000000 
1245.00 	2.24454300 	0.00000000 
1250.00 	2.24434700 	0.00000000 
1255.00 	2.24415300 	0.00000000 
1260.00 	2.24396200 	0.00000000 
1265.00 	2.24377300 	0.00000000 
1270.00 	2.24358700 	0.00000000 
1275.00 	2.24340300 	0.00000000 
1280.00 	2.24322100 	0.00000000 
1285.00 	2.24304100 	0.00000000 
1290.00 	2.24286300 	0.00000000 
1295.00 	2.24268800 	0.00000000 
1300.00 	2.24251500 	0.00000000 
1305.00 	2.24234300 	0.00000000 
1310.00 	2.24217400 	0.00000000 
1315.00 	2.24200700 	0.00000000 
1320.00 	2.24184100 	0.00000000 
1325.00 	2.24167800 	0.00000000 
1330.00 	2.24151600 	0.00000000 
1335.00 	2.24135700 	0.00000000 
1340.00 	2.24119900 	0.00000000 
1345.00 	2.24104300 	0.00000000 
1350.00 	2.24088900 	0.00000000 
1355.00 	2.24073600 	0.00000000 
1360.00 	2.24058500 	0.00000000 
1365.00 	2.24043600 	0.00000000 
1370.00 	2.24028900 	0.00000000 
1375.00 	2.24014300 	0.00000000 
1380.00 	2.23999900 	0.00000000 
1385.00 	2.23985700 	0.00000000 
1390.00 	2.23971600 	0.00000000 
1395.00 	2.23957700 	0.00000000 
1400.00 	2.23943900 	0.00000000 
1405.00 	2.23930300 	0.00000000 
1410.00 	2.23916800 	0.00000000 
1415.00 	2.23903500 	0.00000000 
1420.00 	2.23890300 	0.00000000 
1425.00 	2.23877200 	0.00000000 
1430.00 	2.23864300 	0.00000000 
1435.00 	2.23851600 	0.00000000 
1440.00 	2.23839000 	0.00000000 
1445.00 	2.23826500 	0.00000000 
1450.00 	2.23814100 	0.00000000 
1455.00 	2.23801900 	0.00000000 
1460.00 	2.23789800 	0.00000000 
1465.00 	2.23777800 	0.00000000 
1470.00 	2.23766000 	0.00000000 
1475.00 	2.23754200 	0.00000000 
1480.00 	2.23742600 	0.00000000 
1485.00 	2.23731200 	0.00000000 
1490.00 	2.23719800 	0.00000000 
1495.00 	2.23708500 	0.00000000 
1500.00 	2.23697400 	0.00000000 
1505.00 	2.23686400 	0.00000000 
1510.00 	2.23675500 	0.00000000 
1515.00 	2.23664700 	0.00000000 
1520.00 	2.23654000 	0.00000000 
1525.00 	2.23643400 	0.00000000 
1530.00 	2.23633000 	0.00000000 
1535.00 	2.23622600 	0.00000000 
1540.00 	2.23612300 	0.00000000 
1545.00 	2.23602200 	0.00000000 
1550.00 	2.23592100 	0.00000000 
1555.00 	2.23582100 	0.00000000 
1560.00 	2.23572300 	0.00000000 
1565.00 	2.23562500 	0.00000000 
1570.00 	2.23552800 	0.00000000 
1575.00 	2.23543300 	0.00000000 
1580.00 	2.23533800 	0.00000000 
1585.00 	2.23524400 	0.00000000 
1590.00 	2.23515100 	0.00000000 
1595.00 	2.23505900 	0.00000000 
1600.00 	2.23496700 	0.00000000 
1605.00 	2.23487700 	0.00000000 
1610.00 	2.23478700 	0.00000000 
1615.00 	2.23469900 	0.00000000 
1620.00 	2.23461100 	0.00000000 
1625.00 	2.23452400 	0.00000000 
1630.00 	2.23443800 	0.00000000 
1635.00 	2.23435200 	0.00000000 
1640.00 	2.23426800 	0.00000000 
1645.00 	2.23418400 	0.00000000 
1650.00 	2.23410100 	0.00000000 
1655.00 	2.23401900 	0.00000000 
1660.00 	2.23393700 	0.00000000 
1665.00 	2.23385600 	0.00000000 
1670.00 	2.23377600 	0.00000000 
1675.00 	2.23369700 	0.00000000 
1680.00 	2.23361900 	0.00000000 
1685.00 	2.23354100 	0.00000000 
1690.00 	2.23346400 	0.00000000 
1695.00 	2.23338700 	0.00000000 
1700.00 	2.23331100 	0.00000000 
1705.00 	2.23323600 	0.00000000 
1710.00 	2.23316200 	0.00000000 
1715.00 	2.23308800 	0.00000000 
1720.00 	2.23301500 	0.00000000 
1725.00 	2.23294300 	0.00000000 
1730.00 	2.23287100 	0.00000000 
1735.00 	2.23280000 	0.00000000 
1740.00 	2.23272900 	0.00000000 
1745.00 	2.23265900 	0.00000000 
1750.00 	2.23259000 	0.00000000 
1755.00 	2.23252100 	0.00000000 
1760.00 	2.23245300 	0.00000000 
1765.00 	2.23238500 	0.00000000 
1770.00 	2.23231800 	0.00000000 
1775.00 	2.23225200 	0.00000000 
1780.00 	2.23218600 	0.00000000 
1785.00 	2.23212100 	0.00000000 
1790.00 	2.23205600 	0.00000000 
1795.00 	2.23199200 	0.00000000 
1800.00 	2.23192900 	0.00000000 
1805.00 	2.23186600 	0.00000000 
1810.00 	2.23180300 	0.00000000 
1815.00 	2.23174100 	0.00000000 
1820.00 	2.23168000 	0.00000000 
1825.00 	2.23161900 	0.00000000 
1830.00 	2.23155800 	0.00000000 
1835.00 	2.23149800 	0.00000000 
1840.00 	2.23143900 	0.00000000 
1845.00 	2.23138000 	0.00000000 
1850.00 	2.23132100 	0.00000000 
1855.00 	2.23126300 	0.00000000 
1860.00 	2.23120600 	0.00000000 
1865.00 	2.23114900 	0.00000000 
1870.00 	2.23109200 	0.00000000 
1875.00 	2.23103600 	0.00000000 
1880.00 	2.23098000 	0.00000000 
1885.00 	2.23092500 	0.00000000 
1890.00 	2.23087000 	0.00000000 
1895.00 	2.23081600 	0.00000000 
1900.00 	2.23076200 	0.00000000 
1905.00 	2.23070800 	0.00000000 
1910.00 	2.23065500 	0.00000000 
1915.00 	2.23060300 	0.00000000 
1920.00 	2.23055000 	0.00000000 
1925.00 	2.23049900 	0.00000000 
1930.00 	2.23044700 	0.00000000 
1935.00 	2.23039600 	0.00000000 
1940.00 	2.23034600 	0.00000000 
1945.00 	2.23029500 	0.00000000 
1950.00 	2.23024600 	0.00000000 
1955.00 	2.23019600 	0.00000000 
1960.00 	2.23014700 	0.00000000 
1965.00 	2.23009900 	0.00000000 
1970.00 	2.23005000 	0.00000000 
1975.00 	2.23000200 	0.00000000 
1980.00 	2.22995500 	0.00000000 
1985.00 	2.22990800 	0.00000000 
1990.00 	2.22986100 	0.00000000 
1995.00 	2.22981400 	0.00000000 
2000.00 	2.22976800 	0.00000000 
