; From SOPRA S.A. http://www.sopra-sa.com/indices.htm
; Filename    Symbol               Range (nm)     Description
; NI3SI       Ni3Si               213    12398    Nickel Silicide
; lambda/nm       n         k
213.77	1.77300000	0.98200000
217.52	1.77600000	0.99500000
221.40	1.78200000	1.01100000
225.43	1.78800000	1.02400000
229.60	1.79200000	1.03700000
233.93	1.79700000	1.05200000
238.43	1.80400000	1.06500000
243.11	1.80900000	1.07800000
247.97	1.81500000	1.09300000
253.03	1.82300000	1.10400000
258.30	1.82700000	1.11300000
263.80	1.82700000	1.12200000
269.53	1.82200000	1.13500000
275.52	1.81700000	1.15300000
281.78	1.81500000	1.17600000
288.34	1.81700000	1.19900000
295.20	1.82100000	1.22100000
302.40	1.82500000	1.23700000
309.96	1.82300000	1.25400000
317.91	1.81800000	1.27100000
326.28	1.80600000	1.29100000
335.10	1.79000000	1.31700000
344.40	1.76900000	1.35200000
354.24	1.75600000	1.39900000
364.66	1.74400000	1.46000000
375.71	1.73200000	1.49700000
387.45	1.72200000	1.55500000
399.95	1.71400000	1.61800000
413.28	1.70900000	1.68400000
427.54	1.70200000	1.75500000
442.80	1.69600000	1.83100000
459.20	1.68900000	1.91600000
476.87	1.67700000	2.01600000
495.94	1.68000000	2.12600000
516.60	1.67800000	2.24700000
539.07	1.68100000	2.39000000
563.57	1.69900000	2.55300000
590.41	1.73600000	2.73400000
619.93	1.79300000	2.92900000
652.55	1.87100000	3.13900000
688.81	1.97900000	3.36700000
729.32	2.12300000	3.60500000
774.91	2.29800000	3.84900000
826.57	2.52700000	4.08800000
885.61	2.74600000	4.33700000
953.73	3.07200000	4.61100000
1033.21	3.35200000	4.89100000
1127.14	3.83700000	5.22100000
1239.85	4.69900000	5.47100000
1377.61	5.38200000	5.31800000
1549.81	5.89600000	5.15300000
1771.22	6.47900000	5.12100000
2066.42	7.09600000	4.78300000
2479.70	7.64100000	4.11500000
