; From SOPRA S.A. http://www.sopra-sa.com/indices.htm
; Filename    Symbol               Range (nm)     Description
; NISI        NiSi                213    12398    Nickel Silicide
; lambda/nm       n         k
213.77	1.16700000	1.63200000
217.52	1.19100000	1.65900000
221.40	1.22100000	1.69200000
225.43	1.25100000	1.72400000
229.60	1.28200000	1.75600000
233.93	1.31300000	1.79000000
238.43	1.34700000	1.82400000
243.11	1.38300000	1.86100000
247.97	1.42500000	1.90000000
253.03	1.47600000	1.93900000
258.30	1.53600000	1.97100000
263.80	1.60100000	1.99200000
269.53	1.66400000	2.00400000
275.52	1.72500000	2.01000000
281.78	1.78300000	2.01100000
288.34	1.84300000	2.00500000
295.20	1.89600000	1.99100000
302.40	1.94200000	1.97000000
309.96	1.97600000	1.95000000
317.91	2.00900000	1.92600000
326.28	2.02600000	1.90000000
335.10	2.02900000	1.87600000
344.40	2.00700000	1.86900000
354.24	2.00900000	1.89800000
364.66	2.01200000	1.91400000
375.71	2.02000000	1.94000000
387.45	2.03300000	1.96300000
399.95	2.03900000	1.98600000
413.28	2.04000000	2.01700000
427.54	2.03700000	2.06100000
442.80	2.04300000	2.12500000
459.20	2.06700000	2.19400000
476.87	2.09300000	2.26200000
495.94	2.13300000	2.33200000
516.60	2.16800000	2.41300000
539.07	2.22100000	2.51000000
563.57	2.29900000	2.61600000
590.41	2.43100000	2.72400000
619.93	2.59900000	2.76300000
652.55	2.73100000	2.75000000
688.81	2.85000000	2.73400000
729.32	2.95000000	2.67000000
774.91	2.99000000	2.58800000
826.57	2.97300000	2.49600000
885.61	2.85900000	2.44700000
953.73	2.70200000	2.42000000
1033.21	2.38800000	2.47500000
1127.14	1.98700000	2.77800000
1239.85	1.68200000	3.34400000
1377.61	1.56800000	4.01400000
1549.81	1.54100000	4.73000000
1771.22	1.47700000	5.53500000
2066.42	1.32500000	6.66100000
2479.70	1.25500000	8.39200000
