;  Optical constants for cubic PbS
; 
;   taken from:
;
;   'Handbook of Optical Constants of Solids', Ed. by Edward D. Palik,
;   Academic Press, Inc., 1985.
;   
;    Lambda (nm)            n            k
;-----------------------------------------
103.32	0.78900000	0.84300000
107.81	0.81100000	0.87200000
112.71	0.82100000	0.91200000
118.08	0.83600000	0.97400000
123.98	0.87900000	1.05000000
130.51	0.96800000	1.09600000
137.76	1.00700000	1.06600000
144.16	0.99700000	1.06000000
151.19	0.92100000	1.14000000
161.01	0.99900000	1.27300000
172.19	1.03700000	1.29900000
182.32	1.02400000	1.36100000
193.72	0.95100000	1.48900000
199.97	1.13000000	1.70000000
210.14	1.22000000	1.78000000
219.43	1.22000000	1.85000000
229.59	1.33000000	1.95000000
240.74	1.43000000	2.05000000
250.47	1.52000000	2.10000000
261.01	1.53000000	2.20000000
269.52	1.55000000	2.30000000
278.61	1.53000000	2.45000000
288.33	1.57000000	2.53000000
298.75	1.67000000	2.70000000
309.95	1.73000000	2.83000000
322.03	1.90000000	3.00000000
330.61	2.07000000	3.17000000
339.67	2.33000000	3.32000000
349.24	2.58000000	3.37000000
359.36	2.98000000	3.37000000
370.09	3.17000000	3.37000000
381.48	3.32000000	3.30000000
393.59	3.62000000	3.17000000
413.27	3.88000000	3.00000000
427.52	4.12000000	2.70000000
450.84	4.25000000	2.33000000
486.20	4.35000000	2.00000000
527.58	4.33000000	1.67000000
563.54	4.30000000	1.55000000
619.90	4.29000000	1.48000000
688.78	4.53000000	1.30000000
774.88	4.62000000	0.94000000
885.57	4.50000000	0.83000000
953.69	4.48000000	0.62700000
999.84	4.43000000	0.59700000
1050.68	4.38500000	0.54300000
1097.17	4.35500000	0.50800000
1203.69	4.30000000	0.45800000
1300.94	4.27500000	0.40300000
1400.90	4.26000000	0.39000000
1502.79	4.25000000	0.37000000
1599.74	4.24000000	0.35700000
1698.36	4.23500000	0.34100000
1796.81	4.23500000	0.33400000
1907.38	4.24000000	0.31800000
1999.68	4.25000000	0.31000000
2101.36	4.24500000	0.30400000
2202.13	4.25500000	0.28500000
2300.19	4.26000000	0.27100000
2402.71	4.28000000	0.25500000
2499.60	4.30000000	0.23500000
