;UO 
;UO PbTe.ASC: Values of n and k for cubic lead telluride from various
;UO references in HOCI (pg. 541).  References are 4, 5, 6, 7, 8, 9,
;UO 10, 11, 12, 13, 14, 15, 17, 21, 22, 24, 31.
;UO 
;UO From HANDBOOK OF OPTICAL CONSTANTS IN SOLIDS edited by Edward D.
;UO Palik. Copyright (c) 1985 by Academic Press, Inc. Reproduced by
;UO permission of the publisher.
;UO ----------------------------------------------------------------- 
;UO        nm        n        k
;UO -----------------------------------------------------------------
;N  7
;L    Wavelength[nm]        n        k
103.30	0.62000000	0.37000000
107.80	0.60000000	0.45000000
112.70	0.62000000	0.50000000
118.10	0.65000000	0.58000000
124.00	0.66000000	0.60000000
130.50	0.68000000	0.62000000
137.80	0.68000000	0.70000000
145.90	0.70000000	0.78000000
155.00	0.73000000	0.82000000
165.30	0.80000000	0.92000000
177.10	0.90000000	0.92000000
190.70	0.90000000	0.94000000
206.60	0.80000000	0.92000000
225.40	0.75000000	0.87000000
248.00	0.72000000	1.00000000
258.30	0.90000000	2.02000000
269.50	0.90000000	2.16000000
275.50	0.65000000	1.22000000
281.80	0.90000000	2.34000000
295.20	0.91000000	2.54000000
310.00	0.70000000	1.55000000
326.30	1.05000000	2.96000000
344.40	1.20000000	3.18000000
354.20	0.86000000	1.85000000
364.70	1.40000000	3.35000000
387.50	1.55000000	3.54000000
413.30	1.00000000	2.20000000
442.80	1.80000000	4.20000000
476.90	2.14000000	5.00000000
495.90	1.35000000	2.86000000
516.60	3.30000000	5.80000000
563.60	5.40000000	5.90000000
619.90	6.40000000	4.30000000
688.80	6.16000000	3.10000000
774.90	6.00000000	2.85000000
826.60	3.80000000	3.10000000
885.60	6.40000000	2.74000000
1033.00	7.00000000	1.80000000
1240.00	4.55000000	2.20000000
1550.00	6.25000000	0.34800000
2066.00	6.10000000	0.26100000
2066.00	6.10000000	0.46000000
2101.00	6.11000000	0.51600000
2138.00	6.10000000	0.50800000
2175.00	6.10000000	0.49200000
2214.00	6.10000000	0.49600000
2254.00	6.11000000	0.50500000
2296.00	6.10000000	0.52200000
2339.00	6.07000000	0.52300000
2384.00	6.10000000	0.50400000
2431.00	6.10000000	0.50900000
2480.00	5.76000000	1.40000000
2530.00	6.06000000	0.50500000
2583.00	6.04000000	0.49300000
2638.00	6.06000000	0.46500000
2695.00	6.04000000	0.44700000
2755.00	6.10000000	0.22000000
2818.00	6.05000000	0.42700000
2883.00	6.14000000	0.37000000
2952.00	6.08000000	0.37400000
