;UO 
;UO Pd.ASC: Values of n and k for polycrystalline palladium from
;UO various references in HOCII (pg. 474).  References are 13,
;UO 15, 27, 31.
;UO 
;UO From HANDBOOK OF OPTICAL CONSTANTS IN SOLIDS II edited by Edward D.
;UO Palik. Copyright (c) 1991 by Academic Press, Inc. Reproduced by
;UO permission of the publisher.
;UO -----------------------------------------------------------
;UO        nm        n        k
;UO -----------------------------------------------------------
;N  3
;L    Wavelength[nm]        n        k
103.30	1.34000000	0.66000000
107.80	1.33000000	0.65000000
112.70	1.31000000	0.65000000
118.10	1.30000000	0.66000000
124.00	1.28000000	0.66000000
130.50	1.25000000	0.66000000
137.80	1.19000000	0.68000000
145.90	1.10000000	0.72000000
155.00	0.98000000	0.84000000
165.30	0.89000000	1.02000000
177.10	0.85000000	1.23000000
190.70	0.86000000	1.44000000
207.30	0.87000000	1.60000000
211.90	0.89000000	1.65000000
216.40	0.91000000	1.70000000
221.40	0.92000000	1.76000000
226.30	0.94000000	1.81000000
231.30	0.97000000	1.86000000
237.10	1.00000000	1.91000000
242.60	1.04000000	1.95000000
249.00	1.08000000	1.99000000
255.10	1.11000000	2.03000000
261.60	1.13000000	2.07000000
268.90	1.16000000	2.10000000
276.10	1.19000000	2.13000000
284.40	1.18000000	2.18000000
292.40	1.18000000	2.23000000
300.90	1.20000000	2.29000000
310.70	1.21000000	2.35000000
320.40	1.21000000	2.42000000
331.50	1.20000000	2.50000000
342.50	1.22000000	2.57000000
354.20	1.23000000	2.65000000
367.90	1.24000000	2.74000000
381.50	1.26000000	2.83000000
397.40	1.30000000	2.93000000
413.30	1.33000000	3.03000000
430.50	1.37000000	3.14000000
450.90	1.41000000	3.26000000
471.40	1.46000000	3.39000000
495.90	1.52000000	3.54000000
520.90	1.57000000	3.68000000
548.60	1.64000000	3.84000000
582.10	1.68000000	4.02000000
616.80	1.75000000	4.21000000
659.50	1.80000000	4.42000000
704.50	1.86000000	4.65000000
756.00	1.95000000	4.89000000
821.10	2.06000000	5.19000000
892.00	2.33000000	5.50000000
984.00	2.34000000	5.89000000
1088.00	2.52000000	6.33000000
1215.00	2.66000000	6.90000000
1393.00	2.80000000	7.65000000
1610.00	3.01000000	8.59000000
1937.00	3.34000000	9.89000000
2066.00	3.80000000	9.96000000
2138.00	3.85000000	10.23000000
2214.00	3.92000000	10.49000000
2296.00	3.97000000	10.79000000
2384.00	4.03000000	11.10000000
2480.00	4.10000000	11.44000000
