; Refractive index spectrum for SiO2 by Gao
;
; L. Gao, F. Lemarchand, M. Lequime. Refractive index determination of SiO<sub>2</sub> layer in the UV/Vis/NIR range: spectrophotometric reverse engineering on single and bi-layer designs, <a href="http://dx.doi.org/10.2971/jeos.2013.13010"><i>J. Europ. Opt. Soc. Rap. Public.</i> <b>8</b>, 13010 (2013)</a> (Numerical data kindly provided by F. Lemarchand)
;
; 300-nm monolayer deposited on fused silica using the ion assistance electronic beam deposition technique.
;
; lambda/nm    n     k
252.00 	1.52384600 	0.00121100 
254.00 	1.52294500 	0.00117100 
256.00 	1.52206600 	0.00113100 
258.00 	1.52120800 	0.00109300 
260.00 	1.52037000 	0.00105500 
262.00 	1.51955200 	0.00101900 
264.00 	1.51875300 	0.00098300 
266.00 	1.51797200 	0.00094900 
268.00 	1.51720900 	0.00091500 
270.00 	1.51646300 	0.00088200 
272.00 	1.51573400 	0.00085000 
274.00 	1.51502100 	0.00081900 
276.00 	1.51432500 	0.00078900 
278.00 	1.51364300 	0.00075900 
280.00 	1.51297700 	0.00073000 
282.00 	1.51232500 	0.00070200 
284.00 	1.51168700 	0.00067500 
286.00 	1.51106300 	0.00064900 
288.00 	1.51045200 	0.00062300 
290.00 	1.50985400 	0.00059800 
292.00 	1.50926800 	0.00057400 
294.00 	1.50869500 	0.00055000 
296.00 	1.50813400 	0.00052700 
298.00 	1.50758400 	0.00050500 
300.00 	1.50704600 	0.00048300 
302.00 	1.50651800 	0.00046200 
304.00 	1.50600200 	0.00044100 
306.00 	1.50549500 	0.00042100 
308.00 	1.50499900 	0.00040200 
310.00 	1.50451200 	0.00038300 
312.00 	1.50403500 	0.00036500 
314.00 	1.50356800 	0.00034800 
316.00 	1.50310900 	0.00033100 
318.00 	1.50266000 	0.00031400 
320.00 	1.50221900 	0.00029800 
322.00 	1.50178600 	0.00028300 
324.00 	1.50136100 	0.00026800 
326.00 	1.50094500 	0.00025300 
328.00 	1.50053600 	0.00024000 
330.00 	1.50013500 	0.00022600 
332.00 	1.49974200 	0.00021300 
334.00 	1.49935500 	0.00020000 
336.00 	1.49897600 	0.00018800 
338.00 	1.49860300 	0.00017700 
340.00 	1.49823800 	0.00016600 
342.00 	1.49787800 	0.00015500 
344.00 	1.49752500 	0.00014400 
346.00 	1.49717900 	0.00013500 
348.00 	1.49683800 	0.00012500 
350.00 	1.49650400 	0.00011600 
352.00 	1.49617500 	0.00010700 
354.00 	1.49585200 	0.00009900 
356.00 	1.49553400 	0.00009100 
358.00 	1.49522200 	0.00008300 
360.00 	1.49491500 	0.00007600 
362.00 	1.49461300 	0.00006900 
364.00 	1.49431600 	0.00006300 
366.00 	1.49402500 	0.00005700 
368.00 	1.49373800 	0.00005100 
370.00 	1.49345500 	0.00004500 
372.00 	1.49317700 	0.00004000 
374.00 	1.49290400 	0.00003600 
376.00 	1.49263500 	0.00003100 
378.00 	1.49237000 	0.00002700 
380.00 	1.49211000 	0.00002300 
382.00 	1.49185400 	0.00002000 
384.00 	1.49160100 	0.00001600 
386.00 	1.49135300 	0.00001400 
388.00 	1.49110800 	0.00001100 
390.00 	1.49086700 	0.00000900 
392.00 	1.49062900 	0.00000700 
394.00 	1.49039600 	0.00000500 
396.00 	1.49016500 	0.00000300 
398.00 	1.48993800 	0.00000200 
400.00 	1.48971400 	0.00000100 
402.00 	1.48949400 	0.00000100 
404.00 	1.48927600 	0.00000000 
406.00 	1.48906200 	0.00000000 
408.00 	1.48885000 	0.00000000 
410.00 	1.48864100 	0.00000000 
412.00 	1.48843500 	0.00000000 
414.00 	1.48823100 	0.00000000 
416.00 	1.48803100 	0.00000000 
418.00 	1.48783300 	0.00000000 
420.00 	1.48763800 	0.00000000 
422.00 	1.48744600 	0.00000000 
424.00 	1.48725600 	0.00000000 
426.00 	1.48706900 	0.00000000 
428.00 	1.48688400 	0.00000000 
430.00 	1.48670200 	0.00000000 
432.00 	1.48652200 	0.00000000 
434.00 	1.48634500 	0.00000000 
436.00 	1.48617000 	0.00000000 
438.00 	1.48599700 	0.00000000 
440.00 	1.48582700 	0.00000000 
442.00 	1.48565900 	0.00000000 
444.00 	1.48549300 	0.00000000 
446.00 	1.48532900 	0.00000000 
448.00 	1.48516700 	0.00000000 
450.00 	1.48500800 	0.00000000 
452.00 	1.48485100 	0.00000000 
454.00 	1.48469500 	0.00000000 
456.00 	1.48454200 	0.00000000 
458.00 	1.48439000 	0.00000000 
460.00 	1.48424100 	0.00000000 
462.00 	1.48409400 	0.00000000 
464.00 	1.48394800 	0.00000000 
466.00 	1.48380400 	0.00000000 
468.00 	1.48366200 	0.00000000 
470.00 	1.48352200 	0.00000000 
472.00 	1.48338300 	0.00000000 
474.00 	1.48324700 	0.00000000 
476.00 	1.48311100 	0.00000000 
478.00 	1.48297800 	0.00000000 
480.00 	1.48284600 	0.00000000 
482.00 	1.48271600 	0.00000000 
484.00 	1.48258800 	0.00000000 
486.00 	1.48246100 	0.00000000 
488.00 	1.48233500 	0.00000000 
490.00 	1.48221100 	0.00000000 
492.00 	1.48208900 	0.00000000 
494.00 	1.48196800 	0.00000000 
496.00 	1.48184800 	0.00000000 
498.00 	1.48173000 	0.00000000 
500.00 	1.48161300 	0.00000000 
502.00 	1.48149800 	0.00000000 
504.00 	1.48138400 	0.00000000 
506.00 	1.48127100 	0.00000000 
508.00 	1.48116000 	0.00000000 
510.00 	1.48105000 	0.00000000 
512.00 	1.48094100 	0.00000000 
514.00 	1.48083400 	0.00000000 
516.00 	1.48072700 	0.00000000 
518.00 	1.48062200 	0.00000000 
520.00 	1.48051800 	0.00000000 
522.00 	1.48041600 	0.00000000 
524.00 	1.48031400 	0.00000000 
526.00 	1.48021400 	0.00000000 
528.00 	1.48011500 	0.00000000 
530.00 	1.48001600 	0.00000000 
532.00 	1.47991900 	0.00000000 
534.00 	1.47982300 	0.00000000 
536.00 	1.47972900 	0.00000000 
538.00 	1.47963500 	0.00000000 
540.00 	1.47954200 	0.00000000 
542.00 	1.47945000 	0.00000000 
544.00 	1.47935900 	0.00000000 
546.00 	1.47926900 	0.00000000 
548.00 	1.47918100 	0.00000000 
550.00 	1.47909300 	0.00000000 
552.00 	1.47900600 	0.00000000 
554.00 	1.47892000 	0.00000000 
556.00 	1.47883500 	0.00000000 
558.00 	1.47875100 	0.00000000 
560.00 	1.47866700 	0.00000000 
562.00 	1.47858500 	0.00000000 
564.00 	1.47850300 	0.00000000 
566.00 	1.47842300 	0.00000000 
568.00 	1.47834300 	0.00000000 
570.00 	1.47826400 	0.00000000 
572.00 	1.47818600 	0.00000000 
574.00 	1.47810800 	0.00000000 
576.00 	1.47803200 	0.00000000 
578.00 	1.47795600 	0.00000000 
580.00 	1.47788100 	0.00000000 
582.00 	1.47780700 	0.00000000 
584.00 	1.47773300 	0.00000000 
586.00 	1.47766000 	0.00000000 
588.00 	1.47758800 	0.00000000 
590.00 	1.47751700 	0.00000000 
592.00 	1.47744700 	0.00000000 
594.00 	1.47737700 	0.00000000 
596.00 	1.47730800 	0.00000000 
598.00 	1.47723900 	0.00000000 
600.00 	1.47717100 	0.00000000 
602.00 	1.47710400 	0.00000000 
604.00 	1.47703800 	0.00000000 
606.00 	1.47697200 	0.00000000 
608.00 	1.47690700 	0.00000000 
610.00 	1.47684200 	0.00000000 
612.00 	1.47677800 	0.00000000 
614.00 	1.47671500 	0.00000000 
616.00 	1.47665200 	0.00000000 
618.00 	1.47659000 	0.00000000 
620.00 	1.47652900 	0.00000000 
622.00 	1.47646800 	0.00000000 
624.00 	1.47640800 	0.00000000 
626.00 	1.47634800 	0.00000000 
628.00 	1.47628900 	0.00000000 
630.00 	1.47623000 	0.00000000 
632.00 	1.47617200 	0.00000000 
634.00 	1.47611500 	0.00000000 
636.00 	1.47605800 	0.00000000 
638.00 	1.47600100 	0.00000000 
640.00 	1.47594600 	0.00000000 
642.00 	1.47589000 	0.00000000 
644.00 	1.47583500 	0.00000000 
646.00 	1.47578100 	0.00000000 
648.00 	1.47572700 	0.00000000 
650.00 	1.47567400 	0.00000000 
652.00 	1.47562100 	0.00000000 
654.00 	1.47556800 	0.00000000 
656.00 	1.47551700 	0.00000000 
658.00 	1.47546500 	0.00000000 
660.00 	1.47541400 	0.00000000 
662.00 	1.47536400 	0.00000000 
664.00 	1.47531400 	0.00000000 
666.00 	1.47526400 	0.00000000 
668.00 	1.47521500 	0.00000000 
670.00 	1.47516600 	0.00000000 
672.00 	1.47511800 	0.00000000 
674.00 	1.47507000 	0.00000000 
676.00 	1.47502200 	0.00000000 
678.00 	1.47497500 	0.00000000 
680.00 	1.47492900 	0.00000000 
682.00 	1.47488300 	0.00000000 
684.00 	1.47483700 	0.00000000 
686.00 	1.47479100 	0.00000000 
688.00 	1.47474600 	0.00000000 
690.00 	1.47470200 	0.00000000 
692.00 	1.47465700 	0.00000000 
694.00 	1.47461400 	0.00000000 
696.00 	1.47457000 	0.00000000 
698.00 	1.47452700 	0.00000000 
700.00 	1.47448400 	0.00000000 
702.00 	1.47444200 	0.00000000 
704.00 	1.47440000 	0.00000000 
706.00 	1.47435800 	0.00000000 
708.00 	1.47431700 	0.00000000 
710.00 	1.47427600 	0.00000000 
712.00 	1.47423500 	0.00000000 
714.00 	1.47419500 	0.00000000 
716.00 	1.47415500 	0.00000000 
718.00 	1.47411500 	0.00000000 
720.00 	1.47407600 	0.00000000 
722.00 	1.47403700 	0.00000000 
724.00 	1.47399800 	0.00000000 
726.00 	1.47396000 	0.00000000 
728.00 	1.47392200 	0.00000000 
730.00 	1.47388400 	0.00000000 
732.00 	1.47384700 	0.00000000 
734.00 	1.47381000 	0.00000000 
736.00 	1.47377300 	0.00000000 
738.00 	1.47373700 	0.00000000 
740.00 	1.47370000 	0.00000000 
742.00 	1.47366500 	0.00000000 
744.00 	1.47362900 	0.00000000 
746.00 	1.47359400 	0.00000000 
748.00 	1.47355900 	0.00000000 
750.00 	1.47352400 	0.00000000 
752.00 	1.47348900 	0.00000000 
754.00 	1.47345500 	0.00000000 
756.00 	1.47342100 	0.00000000 
758.00 	1.47338700 	0.00000000 
760.00 	1.47335400 	0.00000000 
762.00 	1.47332100 	0.00000000 
764.00 	1.47328800 	0.00000000 
766.00 	1.47325500 	0.00000000 
768.00 	1.47322300 	0.00000000 
770.00 	1.47319100 	0.00000000 
772.00 	1.47315900 	0.00000000 
774.00 	1.47312700 	0.00000000 
776.00 	1.47309600 	0.00000000 
778.00 	1.47306500 	0.00000000 
780.00 	1.47303400 	0.00000000 
782.00 	1.47300300 	0.00000000 
784.00 	1.47297300 	0.00000000 
786.00 	1.47294200 	0.00000000 
788.00 	1.47291200 	0.00000000 
790.00 	1.47288300 	0.00000000 
792.00 	1.47285300 	0.00000000 
794.00 	1.47282400 	0.00000000 
796.00 	1.47279500 	0.00000000 
798.00 	1.47276600 	0.00000000 
800.00 	1.47273700 	0.00000000 
802.00 	1.47270900 	0.00000000 
804.00 	1.47268000 	0.00000000 
806.00 	1.47265200 	0.00000000 
808.00 	1.47262500 	0.00000000 
810.00 	1.47259700 	0.00000000 
812.00 	1.47257000 	0.00000000 
814.00 	1.47254200 	0.00000000 
816.00 	1.47251500 	0.00000000 
818.00 	1.47248900 	0.00000000 
820.00 	1.47246200 	0.00000000 
822.00 	1.47243600 	0.00000000 
824.00 	1.47240900 	0.00000000 
826.00 	1.47238300 	0.00000000 
828.00 	1.47235700 	0.00000000 
830.00 	1.47233200 	0.00000000 
832.00 	1.47230600 	0.00000000 
834.00 	1.47228100 	0.00000000 
836.00 	1.47225600 	0.00000000 
838.00 	1.47223100 	0.00000000 
840.00 	1.47220600 	0.00000000 
842.00 	1.47218200 	0.00000000 
844.00 	1.47215700 	0.00000000 
846.00 	1.47213300 	0.00000000 
848.00 	1.47210900 	0.00000000 
850.00 	1.47208500 	0.00000000 
852.00 	1.47206100 	0.00000000 
854.00 	1.47203800 	0.00000000 
856.00 	1.47201400 	0.00000000 
858.00 	1.47199100 	0.00000000 
860.00 	1.47196800 	0.00000000 
862.00 	1.47194500 	0.00000000 
864.00 	1.47192200 	0.00000000 
866.00 	1.47190000 	0.00000000 
868.00 	1.47187700 	0.00000000 
870.00 	1.47185500 	0.00000000 
872.00 	1.47183300 	0.00000000 
874.00 	1.47181100 	0.00000000 
876.00 	1.47178900 	0.00000000 
878.00 	1.47176700 	0.00000000 
880.00 	1.47174600 	0.00000000 
882.00 	1.47172400 	0.00000000 
884.00 	1.47170300 	0.00000000 
886.00 	1.47168200 	0.00000000 
888.00 	1.47166100 	0.00000000 
890.00 	1.47164000 	0.00000000 
892.00 	1.47162000 	0.00000000 
894.00 	1.47159900 	0.00000000 
896.00 	1.47157900 	0.00000000 
898.00 	1.47155800 	0.00000000 
900.00 	1.47153800 	0.00000000 
902.00 	1.47151800 	0.00000000 
904.00 	1.47149800 	0.00000000 
906.00 	1.47147900 	0.00000000 
908.00 	1.47145900 	0.00000000 
910.00 	1.47143900 	0.00000000 
912.00 	1.47142000 	0.00000000 
914.00 	1.47140100 	0.00000000 
916.00 	1.47138200 	0.00000000 
918.00 	1.47136300 	0.00000000 
920.00 	1.47134400 	0.00000000 
922.00 	1.47132500 	0.00000000 
924.00 	1.47130700 	0.00000000 
926.00 	1.47128800 	0.00000000 
928.00 	1.47127000 	0.00000000 
930.00 	1.47125100 	0.00000000 
932.00 	1.47123300 	0.00000000 
934.00 	1.47121500 	0.00000000 
936.00 	1.47119700 	0.00000000 
938.00 	1.47118000 	0.00000000 
940.00 	1.47116200 	0.00000000 
942.00 	1.47114400 	0.00000000 
944.00 	1.47112700 	0.00000000 
946.00 	1.47111000 	0.00000000 
948.00 	1.47109200 	0.00000000 
950.00 	1.47107500 	0.00000000 
952.00 	1.47105800 	0.00000000 
954.00 	1.47104100 	0.00000000 
956.00 	1.47102500 	0.00000000 
958.00 	1.47100800 	0.00000000 
960.00 	1.47099100 	0.00000000 
962.00 	1.47097500 	0.00000000 
964.00 	1.47095800 	0.00000000 
966.00 	1.47094200 	0.00000000 
968.00 	1.47092600 	0.00000000 
970.00 	1.47091000 	0.00000000 
972.00 	1.47089400 	0.00000000 
974.00 	1.47087800 	0.00000000 
976.00 	1.47086200 	0.00000000 
978.00 	1.47084600 	0.00000000 
980.00 	1.47083100 	0.00000000 
982.00 	1.47081500 	0.00000000 
984.00 	1.47080000 	0.00000000 
986.00 	1.47078500 	0.00000000 
988.00 	1.47076900 	0.00000000 
990.00 	1.47075400 	0.00000000 
992.00 	1.47073900 	0.00000000 
994.00 	1.47072400 	0.00000000 
996.00 	1.47070900 	0.00000000 
998.00 	1.47069500 	0.00000000 
1000.00 	1.47068000 	0.00000000 
1002.00 	1.47066500 	0.00000000 
1004.00 	1.47065100 	0.00000000 
1006.00 	1.47063600 	0.00000000 
1008.00 	1.47062200 	0.00000000 
1010.00 	1.47060800 	0.00000000 
1012.00 	1.47059400 	0.00000000 
1014.00 	1.47058000 	0.00000000 
1016.00 	1.47056600 	0.00000000 
1018.00 	1.47055200 	0.00000000 
1020.00 	1.47053800 	0.00000000 
1022.00 	1.47052400 	0.00000000 
1024.00 	1.47051000 	0.00000000 
1026.00 	1.47049700 	0.00000000 
1028.00 	1.47048300 	0.00000000 
1030.00 	1.47047000 	0.00000000 
1032.00 	1.47045600 	0.00000000 
1034.00 	1.47044300 	0.00000000 
1036.00 	1.47043000 	0.00000000 
1038.00 	1.47041700 	0.00000000 
1040.00 	1.47040400 	0.00000000 
1042.00 	1.47039100 	0.00000000 
1044.00 	1.47037800 	0.00000000 
1046.00 	1.47036500 	0.00000000 
1048.00 	1.47035200 	0.00000000 
1050.00 	1.47034000 	0.00000000 
1052.00 	1.47032700 	0.00000000 
1054.00 	1.47031400 	0.00000000 
1056.00 	1.47030200 	0.00000000 
1058.00 	1.47029000 	0.00000000 
1060.00 	1.47027700 	0.00000000 
1062.00 	1.47026500 	0.00000000 
1064.00 	1.47025300 	0.00000000 
1066.00 	1.47024100 	0.00000000 
1068.00 	1.47022900 	0.00000000 
1070.00 	1.47021700 	0.00000000 
1072.00 	1.47020500 	0.00000000 
1074.00 	1.47019300 	0.00000000 
1076.00 	1.47018100 	0.00000000 
1078.00 	1.47016900 	0.00000000 
1080.00 	1.47015800 	0.00000000 
1082.00 	1.47014600 	0.00000000 
1084.00 	1.47013500 	0.00000000 
1086.00 	1.47012300 	0.00000000 
1088.00 	1.47011200 	0.00000000 
1090.00 	1.47010000 	0.00000000 
1092.00 	1.47008900 	0.00000000 
1094.00 	1.47007800 	0.00000000 
1096.00 	1.47006700 	0.00000000 
1098.00 	1.47005600 	0.00000000 
1100.00 	1.47004500 	0.00000000 
1102.00 	1.47003400 	0.00000000 
1104.00 	1.47002300 	0.00000000 
1106.00 	1.47001200 	0.00000000 
1108.00 	1.47000100 	0.00000000 
1110.00 	1.46999000 	0.00000000 
1112.00 	1.46998000 	0.00000000 
1114.00 	1.46996900 	0.00000000 
1116.00 	1.46995800 	0.00000000 
1118.00 	1.46994800 	0.00000000 
1120.00 	1.46993700 	0.00000000 
1122.00 	1.46992700 	0.00000000 
1124.00 	1.46991700 	0.00000000 
1126.00 	1.46990600 	0.00000000 
1128.00 	1.46989600 	0.00000000 
1130.00 	1.46988600 	0.00000000 
1132.00 	1.46987600 	0.00000000 
1134.00 	1.46986600 	0.00000000 
1136.00 	1.46985600 	0.00000000 
1138.00 	1.46984600 	0.00000000 
1140.00 	1.46983600 	0.00000000 
1142.00 	1.46982600 	0.00000000 
1144.00 	1.46981600 	0.00000000 
1146.00 	1.46980700 	0.00000000 
1148.00 	1.46979700 	0.00000000 
1150.00 	1.46978700 	0.00000000 
1152.00 	1.46977800 	0.00000000 
1154.00 	1.46976800 	0.00000000 
1156.00 	1.46975800 	0.00000000 
1158.00 	1.46974900 	0.00000000 
1160.00 	1.46974000 	0.00000000 
1162.00 	1.46973000 	0.00000000 
1164.00 	1.46972100 	0.00000000 
1166.00 	1.46971200 	0.00000000 
1168.00 	1.46970200 	0.00000000 
1170.00 	1.46969300 	0.00000000 
1172.00 	1.46968400 	0.00000000 
1174.00 	1.46967500 	0.00000000 
1176.00 	1.46966600 	0.00000000 
1178.00 	1.46965700 	0.00000000 
1180.00 	1.46964800 	0.00000000 
1182.00 	1.46963900 	0.00000000 
1184.00 	1.46963000 	0.00000000 
1186.00 	1.46962200 	0.00000000 
1188.00 	1.46961300 	0.00000000 
1190.00 	1.46960400 	0.00000000 
1192.00 	1.46959500 	0.00000000 
1194.00 	1.46958700 	0.00000000 
1196.00 	1.46957800 	0.00000000 
1198.00 	1.46957000 	0.00000000 
1200.00 	1.46956100 	0.00000000 
1202.00 	1.46955300 	0.00000000 
1204.00 	1.46954400 	0.00000000 
1206.00 	1.46953600 	0.00000000 
1208.00 	1.46952800 	0.00000000 
1210.00 	1.46951900 	0.00000000 
1212.00 	1.46951100 	0.00000000 
1214.00 	1.46950300 	0.00000000 
1216.00 	1.46949500 	0.00000000 
1218.00 	1.46948700 	0.00000000 
1220.00 	1.46947800 	0.00000000 
1222.00 	1.46947000 	0.00000000 
1224.00 	1.46946200 	0.00000000 
1226.00 	1.46945400 	0.00000000 
1228.00 	1.46944700 	0.00000000 
1230.00 	1.46943900 	0.00000000 
1232.00 	1.46943100 	0.00000000 
1234.00 	1.46942300 	0.00000000 
1236.00 	1.46941500 	0.00000000 
1238.00 	1.46940700 	0.00000000 
1240.00 	1.46940000 	0.00000000 
1242.00 	1.46939200 	0.00000000 
1244.00 	1.46938400 	0.00000000 
1246.00 	1.46937700 	0.00000000 
1248.00 	1.46936900 	0.00000000 
1250.00 	1.46936200 	0.00000000 
