; Refractive index spectrum of a silicon dioxide film
; prepared with a Denton Vacuum Discovery 550 Sputtering System
; Q. Wang,  NIST, December 2014
;
; Sputter process conditions:
; RF power:    350 W
; Ar flow:     50 cm^3/s
; Ar pressure: 7 mTorr (1 Pa)
;
; lambda/nm    n       k
251.300 	1.515020 	0.000000 
252.900 	1.514270 	0.000000 
254.500 	1.513530 	0.000000 
256.100 	1.512800 	0.000000 
257.700 	1.512090 	0.000000 
259.300 	1.511390 	0.000000 
260.900 	1.510700 	0.000000 
262.500 	1.510030 	0.000000 
264.100 	1.509370 	0.000000 
265.700 	1.508720 	0.000000 
267.200 	1.508080 	0.000000 
268.800 	1.507450 	0.000000 
270.400 	1.506830 	0.000000 
272.000 	1.506230 	0.000000 
273.600 	1.505630 	0.000000 
275.200 	1.505040 	0.000000 
276.800 	1.504470 	0.000000 
278.400 	1.503900 	0.000000 
280.000 	1.503350 	0.000000 
281.600 	1.502800 	0.000000 
283.100 	1.502260 	0.000000 
284.700 	1.501740 	0.000000 
286.300 	1.501220 	0.000000 
287.900 	1.500710 	0.000000 
289.500 	1.500200 	0.000000 
291.100 	1.499710 	0.000000 
292.700 	1.499220 	0.000000 
294.300 	1.498740 	0.000000 
295.900 	1.498270 	0.000000 
297.500 	1.497810 	0.000000 
299.000 	1.497350 	0.000000 
300.600 	1.496910 	0.000000 
302.200 	1.496460 	0.000000 
303.800 	1.496030 	0.000000 
305.400 	1.495600 	0.000000 
307.000 	1.495180 	0.000000 
308.600 	1.494760 	0.000000 
310.200 	1.494360 	0.000000 
311.800 	1.493950 	0.000000 
313.400 	1.493560 	0.000000 
315.000 	1.493170 	0.000000 
316.500 	1.492780 	0.000000 
318.100 	1.492400 	0.000000 
319.700 	1.492030 	0.000000 
321.300 	1.491670 	0.000000 
322.900 	1.491300 	0.000000 
324.500 	1.490950 	0.000000 
326.100 	1.490590 	0.000000 
327.700 	1.490250 	0.000000 
329.300 	1.489910 	0.000000 
330.900 	1.489570 	0.000000 
332.500 	1.489240 	0.000000 
334.100 	1.488910 	0.000000 
335.600 	1.488590 	0.000000 
337.200 	1.488270 	0.000000 
338.800 	1.487960 	0.000000 
340.400 	1.487650 	0.000000 
342.000 	1.487340 	0.000000 
343.600 	1.487040 	0.000000 
345.200 	1.486750 	0.000000 
346.800 	1.486460 	0.000000 
348.400 	1.486170 	0.000000 
350.000 	1.485880 	0.000000 
351.600 	1.485600 	0.000000 
353.200 	1.485330 	0.000000 
354.700 	1.485050 	0.000000 
356.300 	1.484780 	0.000000 
357.900 	1.484520 	0.000000 
359.500 	1.484260 	0.000000 
361.100 	1.484000 	0.000000 
362.700 	1.483740 	0.000000 
364.300 	1.483490 	0.000000 
365.900 	1.483240 	0.000000 
367.500 	1.483000 	0.000000 
369.100 	1.482750 	0.000000 
370.700 	1.482510 	0.000000 
372.300 	1.482280 	0.000000 
373.800 	1.482040 	0.000000 
375.400 	1.481810 	0.000000 
377.000 	1.481590 	0.000000 
378.600 	1.481360 	0.000000 
380.200 	1.481140 	0.000000 
381.800 	1.480920 	0.000000 
383.400 	1.480710 	0.000000 
385.000 	1.480490 	0.000000 
386.600 	1.480280 	0.000000 
388.200 	1.480070 	0.000000 
389.800 	1.479870 	0.000000 
391.400 	1.479660 	0.000000 
393.000 	1.479460 	0.000000 
394.500 	1.479270 	0.000000 
396.100 	1.479070 	0.000000 
397.700 	1.478880 	0.000000 
399.300 	1.478680 	0.000000 
400.900 	1.478490 	0.000000 
402.500 	1.478310 	0.000000 
404.100 	1.478120 	0.000000 
405.700 	1.477940 	0.000000 
407.300 	1.477760 	0.000000 
408.900 	1.477580 	0.000000 
410.500 	1.477410 	0.000000 
412.100 	1.477230 	0.000000 
413.700 	1.477060 	0.000000 
415.200 	1.476890 	0.000000 
416.800 	1.476720 	0.000000 
418.400 	1.476560 	0.000000 
420.000 	1.476390 	0.000000 
421.600 	1.476230 	0.000000 
423.200 	1.476070 	0.000000 
424.800 	1.475910 	0.000000 
426.400 	1.475750 	0.000000 
428.000 	1.475600 	0.000000 
429.600 	1.475440 	0.000000 
431.200 	1.475290 	0.000000 
432.800 	1.475140 	0.000000 
434.400 	1.474990 	0.000000 
435.900 	1.474850 	0.000000 
437.500 	1.474700 	0.000000 
439.100 	1.474560 	0.000000 
440.700 	1.474420 	0.000000 
442.300 	1.474280 	0.000000 
443.900 	1.474140 	0.000000 
445.500 	1.474000 	0.000000 
447.100 	1.473860 	0.000000 
448.700 	1.473730 	0.000000 
450.300 	1.473590 	0.000000 
451.900 	1.473460 	0.000000 
453.500 	1.473330 	0.000000 
455.100 	1.473200 	0.000000 
456.600 	1.473070 	0.000000 
458.200 	1.472950 	0.000000 
459.800 	1.472820 	0.000000 
461.400 	1.472700 	0.000000 
463.000 	1.472580 	0.000000 
464.600 	1.472460 	0.000000 
466.200 	1.472330 	0.000000 
467.800 	1.472220 	0.000000 
469.400 	1.472100 	0.000000 
471.000 	1.471980 	0.000000 
472.600 	1.471870 	0.000000 
474.200 	1.471750 	0.000000 
475.800 	1.471640 	0.000000 
477.300 	1.471530 	0.000000 
478.900 	1.471420 	0.000000 
480.500 	1.471310 	0.000000 
482.100 	1.471200 	0.000000 
483.700 	1.471090 	0.000000 
485.300 	1.470980 	0.000000 
486.900 	1.470880 	0.000000 
488.500 	1.470770 	0.000000 
490.100 	1.470670 	0.000000 
491.700 	1.470570 	0.000000 
493.300 	1.470470 	0.000000 
494.900 	1.470370 	0.000000 
496.400 	1.470270 	0.000000 
498.000 	1.470170 	0.000000 
499.600 	1.470070 	0.000000 
501.200 	1.469980 	0.000000 
502.800 	1.469880 	0.000000 
504.400 	1.469780 	0.000000 
506.000 	1.469690 	0.000000 
507.600 	1.469600 	0.000000 
509.200 	1.469510 	0.000000 
510.800 	1.469410 	0.000000 
512.400 	1.469320 	0.000000 
514.000 	1.469240 	0.000000 
515.500 	1.469150 	0.000000 
517.100 	1.469060 	0.000000 
518.700 	1.468970 	0.000000 
520.300 	1.468880 	0.000000 
521.900 	1.468800 	0.000000 
523.500 	1.468710 	0.000000 
525.100 	1.468630 	0.000000 
526.700 	1.468550 	0.000000 
528.300 	1.468470 	0.000000 
529.900 	1.468380 	0.000000 
531.500 	1.468300 	0.000000 
533.000 	1.468220 	0.000000 
534.600 	1.468140 	0.000000 
536.200 	1.468060 	0.000000 
537.800 	1.467990 	0.000000 
539.400 	1.467910 	0.000000 
541.000 	1.467830 	0.000000 
542.600 	1.467760 	0.000000 
544.200 	1.467680 	0.000000 
545.800 	1.467610 	0.000000 
547.400 	1.467530 	0.000000 
549.000 	1.467460 	0.000000 
550.500 	1.467390 	0.000000 
552.100 	1.467310 	0.000000 
553.700 	1.467240 	0.000000 
555.300 	1.467170 	0.000000 
556.900 	1.467100 	0.000000 
558.500 	1.467030 	0.000000 
560.100 	1.466960 	0.000000 
561.700 	1.466890 	0.000000 
563.300 	1.466830 	0.000000 
564.900 	1.466760 	0.000000 
566.400 	1.466690 	0.000000 
568.000 	1.466630 	0.000000 
569.600 	1.466560 	0.000000 
571.200 	1.466490 	0.000000 
572.800 	1.466430 	0.000000 
574.400 	1.466370 	0.000000 
576.000 	1.466300 	0.000000 
577.600 	1.466240 	0.000000 
579.200 	1.466180 	0.000000 
580.800 	1.466120 	0.000000 
582.300 	1.466050 	0.000000 
583.900 	1.465990 	0.000000 
585.500 	1.465930 	0.000000 
587.100 	1.465870 	0.000000 
588.700 	1.465810 	0.000000 
590.300 	1.465750 	0.000000 
591.900 	1.465690 	0.000000 
593.500 	1.465640 	0.000000 
595.100 	1.465580 	0.000000 
596.600 	1.465520 	0.000000 
598.200 	1.465470 	0.000000 
599.800 	1.465410 	0.000000 
601.400 	1.465350 	0.000000 
603.000 	1.465300 	0.000000 
604.600 	1.465240 	0.000000 
606.200 	1.465190 	0.000000 
607.800 	1.465140 	0.000000 
609.400 	1.465080 	0.000000 
610.900 	1.465030 	0.000000 
612.500 	1.464970 	0.000000 
614.100 	1.464920 	0.000000 
615.700 	1.464870 	0.000000 
617.300 	1.464820 	0.000000 
618.900 	1.464770 	0.000000 
620.500 	1.464720 	0.000000 
622.100 	1.464670 	0.000000 
623.700 	1.464620 	0.000000 
625.200 	1.464570 	0.000000 
626.800 	1.464520 	0.000000 
628.400 	1.464470 	0.000000 
630.000 	1.464420 	0.000000 
631.600 	1.464370 	0.000000 
633.200 	1.464330 	0.000000 
634.800 	1.464280 	0.000000 
636.400 	1.464230 	0.000000 
637.900 	1.464180 	0.000000 
639.500 	1.464140 	0.000000 
641.100 	1.464090 	0.000000 
642.700 	1.464050 	0.000000 
644.300 	1.464000 	0.000000 
645.900 	1.463960 	0.000000 
647.500 	1.463910 	0.000000 
649.100 	1.463870 	0.000000 
650.600 	1.463820 	0.000000 
652.200 	1.463780 	0.000000 
653.800 	1.463740 	0.000000 
655.400 	1.463690 	0.000000 
657.000 	1.463650 	0.000000 
658.600 	1.463610 	0.000000 
660.200 	1.463570 	0.000000 
661.700 	1.463520 	0.000000 
663.300 	1.463480 	0.000000 
664.900 	1.463440 	0.000000 
666.500 	1.463400 	0.000000 
668.100 	1.463360 	0.000000 
669.700 	1.463320 	0.000000 
671.300 	1.463280 	0.000000 
672.800 	1.463240 	0.000000 
674.400 	1.463200 	0.000000 
676.000 	1.463160 	0.000000 
677.600 	1.463120 	0.000000 
679.200 	1.463080 	0.000000 
680.800 	1.463050 	0.000000 
682.400 	1.463010 	0.000000 
683.900 	1.462970 	0.000000 
685.500 	1.462930 	0.000000 
687.100 	1.462900 	0.000000 
688.700 	1.462860 	0.000000 
690.300 	1.462820 	0.000000 
691.900 	1.462790 	0.000000 
693.400 	1.462750 	0.000000 
695.000 	1.462710 	0.000000 
696.600 	1.462680 	0.000000 
698.200 	1.462640 	0.000000 
699.800 	1.462610 	0.000000 
701.400 	1.462570 	0.000000 
703.000 	1.462540 	0.000000 
704.500 	1.462500 	0.000000 
706.100 	1.462470 	0.000000 
707.700 	1.462430 	0.000000 
709.300 	1.462400 	0.000000 
710.900 	1.462370 	0.000000 
712.500 	1.462330 	0.000000 
714.000 	1.462300 	0.000000 
715.600 	1.462270 	0.000000 
717.200 	1.462230 	0.000000 
718.800 	1.462200 	0.000000 
720.400 	1.462170 	0.000000 
722.000 	1.462140 	0.000000 
723.500 	1.462100 	0.000000 
725.100 	1.462070 	0.000000 
726.700 	1.462040 	0.000000 
728.300 	1.462010 	0.000000 
729.900 	1.461980 	0.000000 
731.400 	1.461950 	0.000000 
733.000 	1.461920 	0.000000 
734.600 	1.461890 	0.000000 
736.200 	1.461860 	0.000000 
737.800 	1.461830 	0.000000 
739.400 	1.461800 	0.000000 
740.900 	1.461770 	0.000000 
742.500 	1.461740 	0.000000 
744.100 	1.461710 	0.000000 
745.700 	1.461680 	0.000000 
747.300 	1.461650 	0.000000 
748.800 	1.461620 	0.000000 
750.400 	1.461590 	0.000000 
752.000 	1.461570 	0.000000 
753.600 	1.461540 	0.000000 
755.200 	1.461510 	0.000000 
756.700 	1.461480 	0.000000 
758.300 	1.461450 	0.000000 
759.900 	1.461430 	0.000000 
761.500 	1.461400 	0.000000 
763.100 	1.461370 	0.000000 
764.600 	1.461340 	0.000000 
766.200 	1.461320 	0.000000 
767.800 	1.461290 	0.000000 
769.400 	1.461270 	0.000000 
771.000 	1.461240 	0.000000 
772.500 	1.461210 	0.000000 
774.100 	1.461190 	0.000000 
775.700 	1.461160 	0.000000 
777.300 	1.461140 	0.000000 
778.900 	1.461110 	0.000000 
780.400 	1.461080 	0.000000 
782.000 	1.461060 	0.000000 
783.600 	1.461030 	0.000000 
785.200 	1.461010 	0.000000 
786.800 	1.460980 	0.000000 
788.300 	1.460960 	0.000000 
789.900 	1.460940 	0.000000 
791.500 	1.460910 	0.000000 
793.100 	1.460890 	0.000000 
794.600 	1.460860 	0.000000 
796.200 	1.460840 	0.000000 
797.800 	1.460820 	0.000000 
799.400 	1.460790 	0.000000 
801.000 	1.460770 	0.000000 
802.500 	1.460740 	0.000000 
804.100 	1.460720 	0.000000 
805.700 	1.460700 	0.000000 
807.300 	1.460680 	0.000000 
808.800 	1.460650 	0.000000 
810.400 	1.460630 	0.000000 
812.000 	1.460610 	0.000000 
813.600 	1.460590 	0.000000 
815.100 	1.460560 	0.000000 
816.700 	1.460540 	0.000000 
818.300 	1.460520 	0.000000 
819.900 	1.460500 	0.000000 
821.400 	1.460480 	0.000000 
823.000 	1.460460 	0.000000 
824.600 	1.460430 	0.000000 
826.200 	1.460410 	0.000000 
827.700 	1.460390 	0.000000 
829.300 	1.460370 	0.000000 
830.900 	1.460350 	0.000000 
832.500 	1.460330 	0.000000 
834.000 	1.460310 	0.000000 
835.600 	1.460290 	0.000000 
837.200 	1.460270 	0.000000 
838.800 	1.460250 	0.000000 
840.300 	1.460230 	0.000000 
841.900 	1.460210 	0.000000 
843.500 	1.460190 	0.000000 
845.100 	1.460170 	0.000000 
846.600 	1.460150 	0.000000 
848.200 	1.460130 	0.000000 
849.800 	1.460110 	0.000000 
851.300 	1.460090 	0.000000 
852.900 	1.460070 	0.000000 
854.500 	1.460050 	0.000000 
856.100 	1.460030 	0.000000 
857.600 	1.460010 	0.000000 
859.200 	1.459990 	0.000000 
860.800 	1.459970 	0.000000 
862.400 	1.459950 	0.000000 
863.900 	1.459940 	0.000000 
865.500 	1.459920 	0.000000 
867.100 	1.459900 	0.000000 
868.600 	1.459880 	0.000000 
870.200 	1.459860 	0.000000 
871.800 	1.459850 	0.000000 
873.300 	1.459830 	0.000000 
874.900 	1.459810 	0.000000 
876.500 	1.459790 	0.000000 
878.100 	1.459770 	0.000000 
879.600 	1.459760 	0.000000 
881.200 	1.459740 	0.000000 
882.800 	1.459720 	0.000000 
884.300 	1.459700 	0.000000 
885.900 	1.459690 	0.000000 
887.500 	1.459670 	0.000000 
889.000 	1.459650 	0.000000 
890.600 	1.459640 	0.000000 
892.200 	1.459620 	0.000000 
893.800 	1.459600 	0.000000 
895.300 	1.459580 	0.000000 
896.900 	1.459570 	0.000000 
898.500 	1.459550 	0.000000 
900.000 	1.459540 	0.000000 
901.600 	1.459520 	0.000000 
903.200 	1.459500 	0.000000 
904.700 	1.459490 	0.000000 
906.300 	1.459470 	0.000000 
907.900 	1.459450 	0.000000 
909.400 	1.459440 	0.000000 
911.000 	1.459420 	0.000000 
912.600 	1.459410 	0.000000 
914.100 	1.459390 	0.000000 
915.700 	1.459380 	0.000000 
917.300 	1.459360 	0.000000 
918.800 	1.459350 	0.000000 
920.400 	1.459330 	0.000000 
922.000 	1.459310 	0.000000 
923.500 	1.459300 	0.000000 
925.100 	1.459280 	0.000000 
926.700 	1.459270 	0.000000 
928.200 	1.459250 	0.000000 
929.800 	1.459240 	0.000000 
931.400 	1.459220 	0.000000 
932.900 	1.459210 	0.000000 
934.500 	1.459200 	0.000000 
936.000 	1.459180 	0.000000 
937.600 	1.459170 	0.000000 
939.200 	1.459150 	0.000000 
940.700 	1.459140 	0.000000 
942.300 	1.459120 	0.000000 
943.900 	1.459110 	0.000000 
945.400 	1.459100 	0.000000 
947.000 	1.459080 	0.000000 
948.600 	1.459070 	0.000000 
950.100 	1.459050 	0.000000 
951.700 	1.459040 	0.000000 
953.200 	1.459030 	0.000000 
954.800 	1.459010 	0.000000 
956.400 	1.459000 	0.000000 
957.900 	1.458990 	0.000000 
959.500 	1.458970 	0.000000 
961.000 	1.458960 	0.000000 
962.600 	1.458940 	0.000000 
964.200 	1.458930 	0.000000 
965.700 	1.458920 	0.000000 
967.300 	1.458910 	0.000000 
968.800 	1.458890 	0.000000 
970.400 	1.458880 	0.000000 
972.000 	1.458870 	0.000000 
973.500 	1.458850 	0.000000 
975.100 	1.458840 	0.000000 
976.600 	1.458830 	0.000000 
978.200 	1.458820 	0.000000 
979.800 	1.458800 	0.000000 
981.300 	1.458790 	0.000000 
982.900 	1.458780 	0.000000 
984.400 	1.458770 	0.000000 
986.000 	1.458750 	0.000000 
987.600 	1.458740 	0.000000 
989.100 	1.458730 	0.000000 
990.700 	1.458720 	0.000000 
992.200 	1.458700 	0.000000 
993.800 	1.458690 	0.000000 
995.300 	1.458680 	0.000000 
996.900 	1.458670 	0.000000 
998.500 	1.458660 	0.000000 
1011.800 	1.458560 	0.000000 
1015.200 	1.458530 	0.000000 
1018.600 	1.458510 	0.000000 
1022.000 	1.458480 	0.000000 
1025.400 	1.458460 	0.000000 
1028.800 	1.458430 	0.000000 
1032.200 	1.458410 	0.000000 
1035.600 	1.458390 	0.000000 
1039.000 	1.458360 	0.000000 
1042.400 	1.458340 	0.000000 
1045.800 	1.458320 	0.000000 
1049.200 	1.458300 	0.000000 
1052.600 	1.458270 	0.000000 
1056.000 	1.458250 	0.000000 
1059.400 	1.458230 	0.000000 
1062.800 	1.458210 	0.000000 
1066.200 	1.458190 	0.000000 
1069.600 	1.458170 	0.000000 
1073.000 	1.458150 	0.000000 
1076.400 	1.458120 	0.000000 
1079.800 	1.458100 	0.000000 
1083.200 	1.458080 	0.000000 
1086.600 	1.458060 	0.000000 
1090.000 	1.458040 	0.000000 
1093.400 	1.458020 	0.000000 
1096.800 	1.458000 	0.000000 
1100.200 	1.457980 	0.000000 
1103.600 	1.457960 	0.000000 
1107.000 	1.457950 	0.000000 
1110.400 	1.457930 	0.000000 
1113.800 	1.457910 	0.000000 
1117.300 	1.457890 	0.000000 
1120.700 	1.457870 	0.000000 
1124.100 	1.457850 	0.000000 
1127.500 	1.457830 	0.000000 
1130.900 	1.457820 	0.000000 
1134.300 	1.457800 	0.000000 
1137.700 	1.457780 	0.000000 
1141.100 	1.457760 	0.000000 
1144.500 	1.457750 	0.000000 
1147.900 	1.457730 	0.000000 
1151.400 	1.457710 	0.000000 
1154.800 	1.457690 	0.000000 
1158.200 	1.457680 	0.000000 
1161.600 	1.457660 	0.000000 
1165.000 	1.457640 	0.000000 
1168.400 	1.457630 	0.000000 
1171.800 	1.457610 	0.000000 
1175.300 	1.457590 	0.000000 
1178.700 	1.457580 	0.000000 
1182.100 	1.457560 	0.000000 
1185.500 	1.457550 	0.000000 
1188.900 	1.457530 	0.000000 
1192.300 	1.457520 	0.000000 
1195.800 	1.457500 	0.000000 
1199.200 	1.457490 	0.000000 
1202.600 	1.457470 	0.000000 
1206.000 	1.457460 	0.000000 
1209.400 	1.457440 	0.000000 
1212.900 	1.457430 	0.000000 
1216.300 	1.457410 	0.000000 
1219.700 	1.457400 	0.000000 
1223.100 	1.457380 	0.000000 
1226.500 	1.457370 	0.000000 
1230.000 	1.457350 	0.000000 
1233.400 	1.457340 	0.000000 
1236.800 	1.457330 	0.000000 
1240.200 	1.457310 	0.000000 
1243.700 	1.457300 	0.000000 
1247.100 	1.457290 	0.000000 
1250.500 	1.457270 	0.000000 
1253.900 	1.457260 	0.000000 
1257.400 	1.457250 	0.000000 
1260.800 	1.457230 	0.000000 
1264.200 	1.457220 	0.000000 
1267.600 	1.457210 	0.000000 
1271.100 	1.457200 	0.000000 
1274.500 	1.457180 	0.000000 
1277.900 	1.457170 	0.000000 
1281.400 	1.457160 	0.000000 
1284.800 	1.457150 	0.000000 
1288.200 	1.457130 	0.000000 
1291.600 	1.457120 	0.000000 
1295.100 	1.457110 	0.000000 
1298.500 	1.457100 	0.000000 
1301.900 	1.457080 	0.000000 
1305.400 	1.457070 	0.000000 
1308.800 	1.457060 	0.000000 
1312.200 	1.457050 	0.000000 
1315.700 	1.457040 	0.000000 
1319.100 	1.457030 	0.000000 
1322.500 	1.457020 	0.000000 
1326.000 	1.457010 	0.000000 
1329.400 	1.456990 	0.000000 
1332.900 	1.456980 	0.000000 
1336.300 	1.456970 	0.000000 
1339.700 	1.456960 	0.000000 
1343.200 	1.456950 	0.000000 
1346.600 	1.456940 	0.000000 
1350.000 	1.456930 	0.000000 
1353.500 	1.456920 	0.000000 
1356.900 	1.456910 	0.000000 
1360.400 	1.456900 	0.000000 
1363.800 	1.456890 	0.000000 
1367.200 	1.456880 	0.000000 
1370.700 	1.456870 	0.000000 
1374.100 	1.456860 	0.000000 
1377.600 	1.456850 	0.000000 
1381.000 	1.456840 	0.000000 
1384.400 	1.456830 	0.000000 
1387.900 	1.456820 	0.000000 
1391.300 	1.456810 	0.000000 
1394.800 	1.456800 	0.000000 
1398.200 	1.456790 	0.000000 
1401.700 	1.456780 	0.000000 
1405.100 	1.456770 	0.000000 
1408.600 	1.456760 	0.000000 
1412.000 	1.456750 	0.000000 
1415.500 	1.456740 	0.000000 
1418.900 	1.456730 	0.000000 
1422.400 	1.456720 	0.000000 
1425.800 	1.456710 	0.000000 
1429.200 	1.456700 	0.000000 
1432.700 	1.456700 	0.000000 
1436.100 	1.456690 	0.000000 
1439.600 	1.456680 	0.000000 
1443.000 	1.456670 	0.000000 
1446.500 	1.456660 	0.000000 
1450.000 	1.456650 	0.000000 
1453.400 	1.456640 	0.000000 
1456.900 	1.456630 	0.000000 
1460.300 	1.456630 	0.000000 
1463.800 	1.456620 	0.000000 
1467.200 	1.456610 	0.000000 
1470.700 	1.456600 	0.000000 
1474.100 	1.456590 	0.000000 
1477.600 	1.456580 	0.000000 
1481.000 	1.456580 	0.000000 
1484.500 	1.456570 	0.000000 
1487.900 	1.456560 	0.000000 
1491.400 	1.456550 	0.000000 
1494.900 	1.456540 	0.000000 
1498.300 	1.456540 	0.000000 
