;  Optical constants for trigonal quartz, ordinary ray
; 
;   taken from:
;
;   'Handbook of Optical Constants of Solids', Ed. by Edward D. Palik,
;   Academic Press, Inc., 1985.
;   
;    Lambda (nm)            n            k
;-----------------------------------------
101.60	1.43500000	0.95730000
103.30	1.50400000	1.01500000
104.20	1.55100000	1.03500000
105.10	1.60200000	1.04800000
106.00	1.66100000	1.05600000
106.90	1.72200000	1.04600000
107.80	1.78200000	1.02700000
108.80	1.83900000	0.99390000
109.70	1.89200000	0.94520000
110.70	1.92400000	0.87300000
111.70	1.92500000	0.79580000
112.70	1.89100000	0.72100000
113.70	1.80500000	0.65970000
114.30	1.73800000	0.64180000
114.50	1.68800000	0.63560000
114.80	1.62600000	0.67320000
115.30	1.56900000	0.75940000
115.90	1.52800000	0.84630000
116.40	1.50600000	0.96660000
117.00	1.52100000	1.11400000
117.50	1.60700000	1.28900000
118.10	1.76900000	1.40000000
118.60	1.95900000	1.45400000
119.20	2.15900000	1.45200000
119.60	2.28900000	1.42300000
119.80	2.37300000	1.37800000
120.40	2.51500000	1.22900000
121.00	2.59000000	1.07200000
121.50	2.61900000	0.93260000
122.70	2.62100000	0.71230000
124.00	2.58100000	0.54410000
125.20	2.52900000	0.41610000
126.50	2.46400000	0.31480000
127.80	2.39700000	0.24020000
129.10	2.33500000	0.17000000
130.50	2.27500000	0.12000000
131.90	2.22200000	0.08200000
133.30	2.17400000	0.05600000
134.80	2.13300000	0.03600000
136.20	2.09500000	0.02300000
137.80	2.06000000	0.01300000
139.30	2.02800000	0.00700000
140.90	1.99900000	0.00310000
142.50	1.97100000	0.00100000
144.20	1.94600000	0.00023000
145.90	1.92200000	0.00003500
147.60	1.89900000	0.00000270
149.40	1.87700000	0.00000000
151.20	1.85600000	0.00000000
153.10	1.83800000	0.00000000
155.00	1.82000000	0.00000000
159.00	1.78900000	0.00000000
163.10	1.76100000	0.00000000
167.50	1.73700000	0.00000000
172.20	1.71600000	0.00000000
177.10	1.69800000	0.00000000
183.70	1.67900000	0.00000000
185.10	1.67750000	0.00000000
185.47	1.67578000	0.00000000
193.58	1.65999000	0.00000000
198.00	1.65087000	0.00000000
200.06	1.64927000	0.00000000
202.55	1.64557000	0.00000000
204.45	1.64288000	0.00000000
211.07	1.63432000	0.00000000
214.44	1.63039000	0.00000000
219.46	1.62497000	0.00000000
226.50	1.61818000	0.00000000
231.00	1.61395000	0.00000000
231.29	1.61401000	0.00000000
242.80	1.60525000	0.00000000
250.33	1.60032000	0.00000000
257.30	1.59622000	0.00000000
263.16	1.59309000	0.00000000
274.87	1.58752000	0.00000000
291.36	1.58098000	0.00000000
303.41	1.57955000	0.00000000
312.28	1.57433000	0.00000000
325.25	1.57091500	0.00000000
340.00	1.56747000	0.00000000
340.37	1.56747000	0.00000000
358.68	1.56391500	0.00000000
394.00	1.55846000	0.00000000
396.85	1.55813000	0.00000000
404.66	1.55715600	0.00000000
410.17	1.55650200	0.00000000
434.00	1.55396000	0.00000000
434.05	1.55396300	0.00000000
435.83	1.55379000	0.00000000
467.81	1.55102700	0.00000000
479.99	1.55011800	0.00000000
486.13	1.54968300	0.00000000
508.00	1.54822000	0.00000000
508.58	1.54822900	0.00000000
518.36	1.54765100	0.00000000
533.85	1.54679900	0.00000000
546.07	1.54617400	0.00000000
579.07	1.54466700	0.00000000
587.56	1.54431600	0.00000000
589.29	1.54424600	0.00000000
589.30	1.54424000	0.00000000
627.82	1.54281900	0.00000000
643.85	1.54228800	0.00000000
656.28	1.54189900	0.00000000
667.81	1.54155300	0.00000000
670.79	1.54146600	0.00000000
706.52	1.54048800	0.00000000
728.13	1.53994800	0.00000000
766.49	1.53907100	0.00000000
768.00	1.53903000	0.00000000
794.76	1.53847800	0.00000000
832.50	1.53773000	0.00000000
844.67	1.53752500	0.00000000
991.40	1.53514000	0.00000000
1000.00	1.53503000	0.00000000
1014.06	1.53483000	0.00000000
1083.03	1.53387000	0.00000000
1159.20	1.53283000	0.00000000
1200.00	1.53232000	0.00000000
1300.00	1.53102000	0.00000000
1307.00	1.53090000	0.00000000
1395.80	1.52977000	0.00000000
1400.00	1.52972000	0.00000000
1479.20	1.52865000	0.00000000
1529.61	1.52800000	0.00000000
1541.40	1.52781000	0.00000000
1600.00	1.52703000	0.00000000
1681.50	1.52583000	0.00000000
1761.40	1.52468000	0.00000000
1800.00	1.52413000	0.00000000
1945.70	1.52184000	0.00000000
2053.10	1.52005000	0.00000000
2058.20	1.51998000	0.00000000
2300.00	1.51561000	0.00000000
