;  Optical constants for trigonal Te, extraordinary ray
; 
;   taken from:
;
;   'Handbook of Optical Constants of Solids II', Ed. by Edward D. Palik,
;   Academic Press, Inc., 1991.
;   
;    Lambda (nm)            n            k
;-----------------------------------------
103.32	0.79000000	0.76000000
107.81	0.79000000	0.75000000
112.71	0.80000000	0.77000000
118.08	0.83000000	0.80000000
123.98	0.86000000	0.86000000
130.51	0.84000000	0.95000000
137.76	0.99000000	0.93000000
141.69	1.59000000	1.23000000
145.86	1.55000000	1.23000000
150.28	1.54000000	1.30000000
154.97	1.54000000	1.37000000
159.97	1.60000000	1.47000000
165.31	1.72000000	1.51000000
171.01	1.81000000	1.44000000
177.11	1.83000000	1.36000000
183.67	1.79000000	1.34000000
190.74	1.78000000	1.36000000
198.37	1.73000000	1.41000000
206.63	1.73000000	1.45000000
215.62	1.72000000	1.51000000
225.42	1.72000000	1.57000000
236.15	1.71000000	1.58000000
247.96	1.63000000	1.60000000
261.01	1.49000000	1.71000000
275.51	1.32000000	1.96000000
291.72	1.25000000	2.31000000
309.95	1.33000000	2.64000000
330.61	1.44000000	3.06000000
354.23	1.69000000	3.44000000
381.48	1.92000000	3.78000000
403.98	2.22000000	3.96000000
413.27	2.30000000	4.16000000
416.60	2.35000000	4.15000000
430.04	2.54000000	4.27000000
442.79	2.73000000	4.42000000
444.37	2.76000000	4.39000000
459.70	2.98000000	4.52000000
476.11	3.21000000	4.71000000
476.85	3.25000000	4.77000000
489.27	3.46000000	4.85000000
498.51	3.63000000	4.93000000
507.91	3.81000000	5.01000000
516.58	3.94000000	5.08000000
517.88	3.99000000	5.08000000
528.02	4.20000000	5.16000000
538.81	4.39000000	5.20000000
549.80	4.65000000	5.21000000
561.25	4.91000000	5.20000000
563.54	4.94000000	5.16000000
573.45	5.17000000	5.16000000
599.23	5.76000000	4.92000000
612.85	6.00000000	4.77000000
619.90	4.67000000	4.67000000
627.43	6.21000000	4.60000000
642.38	6.40000000	4.36000000
658.42	6.58000000	4.10000000
674.90	6.77000000	3.86000000
688.78	6.89000000	3.70000000
692.63	6.85000000	3.65000000
710.89	6.86000000	3.47000000
730.58	6.80000000	3.18000000
750.94	6.78000000	3.03000000
772.94	6.74000000	2.93000000
774.88	6.75000000	2.91000000
796.27	6.73000000	2.89000000
820.52	6.81000000	2.86000000
846.86	6.95000000	2.80000000
874.33	7.14000000	2.56000000
885.57	7.11000000	2.46000000
953.69	6.87000000	2.16000000
1033.17	6.99000000	2.22000000
1127.09	7.51000000	2.10000000
1239.80	7.70000000	1.56000000
1377.56	7.48000000	0.94000000
1549.75	7.23000000	0.48000000
1771.14	7.00000000	0.24000000
2066.33	6.71000000	0.07500000
2479.60	6.53000000	0.02300000
