;  Optical constants for trigonal Te,ordinary ray
; 
;   taken from:
;
;   'Handbook of Optical Constants of Solids II', Ed. by Edward D. Palik,
;   Academic Press, Inc., 1991.
;   
;    Lambda (nm)            n            k
;-----------------------------------------
103.32	0.87000000	0.87000000
107.81	0.84000000	0.90000000
112.71	0.84000000	1.01000000
118.08	0.98000000	0.98000000
123.98	0.99000000	1.04000000
130.51	0.96000000	1.20000000
137.76	2.27000000	1.12000000
141.69	2.35000000	1.06000000
145.86	2.39000000	1.00000000
150.28	2.45000000	0.96000000
154.97	2.59000000	0.91000000
159.97	2.61000000	0.77000000
165.31	2.60000000	0.69000000
171.01	2.57000000	0.55000000
177.11	2.48000000	0.40000000
183.67	2.35000000	0.32000000
190.74	2.19000000	0.32000000
198.37	2.04000000	0.36000000
206.63	1.94000000	0.39000000
215.62	1.82000000	0.47000000
225.42	1.74000000	0.51000000
236.15	1.59000000	0.69000000
247.96	1.47000000	0.82000000
261.01	1.39000000	1.01000000
275.51	1.28000000	1.28000000
291.72	1.27000000	1.65000000
309.95	1.32000000	2.01000000
330.61	1.50000000	2.37000000
354.23	1.72000000	2.70000000
381.48	2.02000000	3.03000000
403.98	2.37000000	3.29000000
413.27	2.51000000	3.39000000
416.60	2.56000000	3.39000000
430.04	2.77000000	3.47000000
442.79	3.03000000	3.63000000
444.37	3.01000000	3.57000000
459.70	3.27000000	3.66000000
476.11	3.55000000	3.72000000
476.85	3.57000000	3.75000000
489.27	3.76000000	3.76000000
498.51	3.91000000	3.77000000
507.91	4.07000000	3.77000000
516.58	4.24000000	3.77000000
517.88	4.25000000	3.78000000
528.02	4.43000000	3.76000000
538.81	4.62000000	3.69000000
549.80	4.81000000	3.63000000
561.25	5.01000000	3.57000000
563.54	5.10000000	3.61000000
573.45	5.26000000	3.52000000
599.23	5.67000000	3.16000000
612.85	5.82000000	2.94000000
619.90	5.94000000	2.69000000
627.43	5.97000000	2.70000000
642.38	6.07000000	2.45000000
658.42	6.11000000	2.25000000
674.90	6.12000000	2.02000000
688.78	6.10000000	1.80000000
692.63	6.09000000	1.72000000
710.89	6.04000000	1.52000000
730.58	5.95000000	1.36000000
750.94	5.87000000	1.26000000
772.94	5.86000000	1.17000000
774.88	5.88000000	1.15000000
796.27	5.84000000	1.06000000
820.52	5.78000000	0.89500000
846.86	5.68000000	0.76000000
874.33	5.59000000	0.65900000
885.57	5.56000000	0.63000000
953.69	5.36000000	0.54000000
1033.17	5.17000000	0.63000000
1127.09	5.33000000	0.68000000
1239.80	5.35000000	0.45000000
1377.56	5.22000000	0.22000000
1549.75	5.10000000	0.13000000
1771.14	4.95000000	0.11000000
2066.33	4.93000000	0.00000000
2479.60	4.90000000	0.00000000
