; Refractive index spectrum for Ti by Johnson
;
; P. B. Johnson and R. W. Christy. Optical constants of transition metals: Ti, V, Cr, Mn, Fe, Co, Ni, and Pd, <a href="http://dx.doi.org/10.1103/PhysRevB.9.5056"><i>Phys. Rev. B</i> <b>9</b>, 5056-5070 (1974)</a>
;
; Room temperature
;
; lambda/nm    n     k
188.00 	1.10000000 	1.62000000 
192.00 	1.16000000 	1.64000000 
195.00 	1.22000000 	1.66000000 
199.00 	1.25000000 	1.68000000 
203.00 	1.27000000 	1.69000000 
207.00 	1.31000000 	1.69000000 
212.00 	1.31000000 	1.68000000 
216.00 	1.32000000 	1.67000000 
221.00 	1.32000000 	1.66000000 
226.00 	1.32000000 	1.66000000 
231.00 	1.31000000 	1.68000000 
237.00 	1.30000000 	1.72000000 
243.00 	1.28000000 	1.77000000 
249.00 	1.27000000 	1.83000000 
255.00 	1.26000000 	1.91000000 
262.00 	1.27000000 	1.99000000 
269.00 	1.27000000 	2.07000000 
276.00 	1.30000000 	2.17000000 
284.00 	1.35000000 	2.26000000 
292.00 	1.40000000 	2.36000000 
301.00 	1.45000000 	2.46000000 
311.00 	1.50000000 	2.57000000 
320.00 	1.55000000 	2.66000000 
332.00 	1.61000000 	2.74000000 
342.00 	1.72000000 	2.82000000 
354.00 	1.82000000 	2.87000000 
368.00 	1.90000000 	2.90000000 
381.00 	1.99000000 	2.93000000 
397.00 	2.08000000 	2.95000000 
413.00 	2.14000000 	2.98000000 
431.00 	2.21000000 	3.01000000 
451.00 	2.27000000 	3.04000000 
471.00 	2.32000000 	3.10000000 
496.00 	2.36000000 	3.19000000 
521.00 	2.44000000 	3.30000000 
549.00 	2.54000000 	3.43000000 
582.00 	2.60000000 	3.58000000 
617.00 	2.67000000 	3.72000000 
659.00 	2.76000000 	3.84000000 
704.00 	2.86000000 	3.96000000 
756.00 	3.00000000 	4.01000000 
821.00 	3.21000000 	4.01000000 
892.00 	3.29000000 	3.96000000 
984.00 	3.35000000 	3.97000000 
1088.00 	3.50000000 	4.02000000 
1216.00 	3.62000000 	4.15000000 
1393.00 	3.67000000 	4.37000000 
1610.00 	3.69000000 	4.70000000 
1937.00 	3.51000000 	5.19000000 
