; Refractive index spectrum for V by Johnson
;
; P. B. Johnson and R. W. Christy. Optical constants of transition metals: Ti, V, Cr, Mn, Fe, Co, Ni, and Pd, <a href="http://dx.doi.org/10.1103/PhysRevB.9.5056"><i>Phys. Rev. B</i> <b>9</b>, 5056-5070 (1974)</a>
;
; Room temperature
;
; lambda/nm    n     k
188.00 	1.47000000 	1.90000000 
192.00 	1.54000000 	1.92000000 
195.00 	1.58000000 	1.93000000 
199.00 	1.62000000 	1.94000000 
203.00 	1.65000000 	1.94000000 
207.00 	1.68000000 	1.94000000 
212.00 	1.66000000 	1.94000000 
216.00 	1.65000000 	1.95000000 
221.00 	1.63000000 	1.98000000 
226.00 	1.62000000 	2.01000000 
231.00 	1.59000000 	2.07000000 
237.00 	1.58000000 	2.14000000 
243.00 	1.57000000 	2.20000000 
249.00 	1.60000000 	2.29000000 
255.00 	1.64000000 	2.37000000 
262.00 	1.70000000 	2.45000000 
269.00 	1.77000000 	2.55000000 
276.00 	1.81000000 	2.63000000 
284.00 	1.87000000 	2.73000000 
292.00 	1.93000000 	2.84000000 
301.00 	2.07000000 	2.95000000 
311.00 	2.17000000 	3.06000000 
320.00 	2.28000000 	3.15000000 
332.00 	2.37000000 	3.22000000 
342.00 	2.42000000 	3.29000000 
354.00 	2.51000000 	3.34000000 
368.00 	2.68000000 	3.40000000 
381.00 	2.87000000 	3.45000000 
397.00 	3.07000000 	3.48000000 
413.00 	3.31000000 	3.49000000 
431.00 	3.52000000 	3.49000000 
451.00 	3.59000000 	3.46000000 
471.00 	3.81000000 	3.38000000 
496.00 	3.92000000 	3.26000000 
521.00 	3.86000000 	3.18000000 
549.00 	4.00000000 	3.04000000 
582.00 	3.83000000 	3.00000000 
617.00 	3.54000000 	3.02000000 
659.00 	3.25000000 	3.09000000 
704.00 	3.18000000 	3.15000000 
756.00 	3.20000000 	3.20000000 
821.00 	3.16000000 	3.25000000 
892.00 	3.12000000 	3.34000000 
984.00 	2.94000000 	3.50000000 
1088.00 	2.87000000 	3.78000000 
1216.00 	2.70000000 	4.33000000 
1393.00 	2.64000000 	5.18000000 
1610.00 	2.77000000 	6.34000000 
1937.00 	2.79000000 	7.90000000 
