;Tungsten ; ref p360 [Handbook of Optical Constants of Solids ]
;Wavelength(nm)	n	k
179.7	1.09	2.63
182.3	1.12	2.70
185.1	1.16	2.78
187.9	1.21	2.87
190.7	1.26	2.95
193.7	1.31	3.04
196.8	1.38	3.14
200.0	1.47	3.24
203.3	1.58	3.33
206.6	1.70	3.42
210.1	1.83	3.52
213.8	2.00	3.61
217.5	2.20	3.67
221.4	2.43	3.70
225.4	2.68	3.68
229.6	2.92	3.58
233.9	3.11	3.43
238.4	3.27	3.27
243.1	3.38	3.05
248.0	3.40	2.85
253.0	3.37	2.68
258.3	3.33	2.57
263.8	3.29	2.48
269.5	3.24	2.41
275.5	3.19	2.35
281.8	3.13	2.32
288.3	3.07	2.31
295.2	3.01	2.33
302.4	2.97	2.37
310.0	2.95	2.43
313.9	2.95	2.46
317.9	2.96	2.50
322.0	2.98	2.53
326.3	2.99	2.56
330.6	3.02	2.60
335.1	3.05	2.62
339.7	3.09	2.65
344.4	3.13	2.67
349.3	3.18	2.69
354.2	3.24	2.70
359.4	3.32	2.70
364.7	3.39	2.66
370.1	3.43	2.60
375.7	3.45	2.55
381.5	3.45	2.49
387.5	3.43	2.45
393.6	3.41	2.43
400.0	3.39	2.41
406.5	3.37	2.42
413.3	3.35	2.42
420.3	3.33	2.43
427.5	3.32	2.45
435.0	3.31	2.47
442.8	3.30	2.49
450.9	3.31	2.53
459.2	3.31	2.55
467.9	3.32	2.59
476.9	3.34	2.62
486.2	3.35	2.64
495.9	3.38	2.68
506.1	3.42	2.71
516.6	3.45	2.72
527.6	3.48	2.72
539.1	3.50	2.72
551.0	3.50	2.73
563.6	3.49	2.75
576.7	3.51	2.81
590.4	3.54	2.84
604.8	3.57	2.86
619.9	3.60	2.89
635.8	3.65	2.92
652.6	3.70	2.94
670.2	3.76	2.95
688.8	3.82	2.91
708.5	3.85	2.86
729.3	3.84	2.78
751.4	3.78	2.72
774.9	3.67	2.68
799.9	3.56	2.73
826.6	3.48	2.79
855.1	3.38	2.85
885.6	3.29	2.96
918.4	3.20	3.07
953.7	3.12	3.24
991.9	3.05	3.39
1033	3.00	3.64






