; From SOPRA S.A. http://www.sopra-sa.com/indices.htm
; Filename    Symbol               Range (nm)     Description
; WSI2-B      WSi2                165    12398    Tungsten Silicide (parallel to c axis)
; lambda/nm       n         k
165.31	0.69700000	1.83400000
167.55	0.72200000	1.89100000
169.84	0.73500000	1.95500000
172.20	0.76800000	2.02100000
174.63	0.78800000	2.08300000
177.12	0.83100000	2.14500000
179.69	0.87600000	2.19400000
182.33	0.90200000	2.23800000
185.05	0.92500000	2.29600000
187.86	0.97800000	2.38500000
190.75	1.03600000	2.40800000
193.73	1.07300000	2.46100000
196.80	1.12200000	2.52500000
199.98	1.18600000	2.54700000
203.25	1.22900000	2.59400000
206.64	1.26600000	2.63400000
210.14	1.28600000	2.69300000
213.77	1.34600000	2.78300000
217.52	1.41400000	2.88200000
221.40	1.54900000	2.92300000
225.43	1.64500000	2.97900000
229.60	1.78300000	3.00400000
233.93	1.90500000	2.95400000
238.43	1.98900000	2.94400000
243.11	2.08700000	2.94600000
247.97	2.04400000	2.83500000
253.03	2.11000000	2.90100000
258.30	2.18000000	2.91500000
263.80	2.25600000	2.90300000
269.53	2.30100000	2.87800000
275.52	2.33100000	2.86900000
281.78	2.35800000	2.87100000
288.34	2.38100000	2.88100000
295.20	2.40200000	2.90100000
302.40	2.41800000	2.93400000
309.96	2.43900000	2.98600000
317.91	2.46800000	3.05200000
326.28	2.51400000	3.13300000
335.10	2.57700000	3.22200000
344.40	2.66000000	3.31700000
354.24	2.77000000	3.40900000
364.66	2.89400000	3.49200000
375.71	3.03700000	3.56900000
387.45	3.19000000	3.64200000
399.95	3.36900000	3.71400000
413.28	3.58100000	3.76800000
427.54	3.81200000	4.00000000
442.80	7.83100000	3.25400000
459.20	22.90000000	1.09000000
476.87	22.80000000	1.10100000
495.94	22.70000000	1.09300000
516.60	22.60000000	1.07300000
539.07	22.50000000	1.04900000
563.57	22.40000000	1.02200000
590.41	22.30000000	0.99500000
619.93	22.20000000	0.97000000
652.55	22.10000000	0.94600000
688.81	22.00000000	0.92400000
729.32	21.90000000	0.90800000
774.91	21.80000000	0.89500000
826.57	21.70000000	0.88300000
885.61	21.60000000	0.87300000
953.73	21.50000000	0.86100000
1033.21	21.40000000	0.85000000
1127.14	21.30000000	0.83900000
1239.85	21.20000000	0.82700000
1377.61	21.10000000	0.82300000
1549.81	21.00000000	0.82300000
1771.22	20.90000000	0.82500000
2066.42	20.80000000	0.82400000
2479.70	20.70000000	0.82200000
