;  Optical constants for cubic Y2O3
; 
;   taken from:
;
;   'Handbook of Optical Constants of Solids II', Ed. by Edward D. Palik,
;   Academic Press, Inc., 1991.
;   
;    Lambda (nm)            n            k
;-----------------------------------------
100.80	1.29600000	1.28200000
101.62	1.30100000	1.26700000
102.46	1.30500000	1.25000000
103.32	1.30800000	1.23800000
104.18	1.32300000	1.23400000
105.07	1.35600000	1.23500000
105.97	1.39000000	1.24600000
106.88	1.41500000	1.25900000
107.81	1.44000000	1.27300000
108.75	1.48100000	1.28500000
109.72	1.52000000	1.29100000
110.70	1.53700000	1.29700000
111.69	1.54300000	1.29200000
112.71	1.55500000	1.28600000
113.74	1.57500000	1.27600000
114.80	1.61500000	1.26400000
115.87	1.64300000	1.25800000
116.96	1.68400000	1.26400000
118.08	1.70400000	1.26200000
119.21	1.71600000	1.25200000
120.37	1.72100000	1.23700000
121.55	1.72500000	1.22100000
122.75	1.73000000	1.20800000
123.98	1.73500000	1.19600000
125.23	1.74100000	1.19200000
126.51	1.74900000	1.17000000
127.81	1.75700000	1.16300000
129.15	1.76600000	1.16500000
130.51	1.78200000	1.17300000
131.89	1.81100000	1.18000000
133.31	1.85700000	1.18500000
134.76	1.89800000	1.19700000
136.24	1.90800000	1.21600000
137.76	1.92500000	1.23500000
139.30	1.94600000	1.26600000
140.89	1.97500000	1.21200000
142.51	2.02100000	1.21100000
144.16	2.05100000	1.21600000
145.86	2.08900000	1.22100000
147.60	2.13900000	1.22000000
149.37	2.18100000	1.21700000
151.19	2.19600000	1.20500000
153.06	2.20900000	1.18800000
154.97	2.22200000	1.16200000
156.94	2.24000000	1.13600000
158.95	2.26500000	1.12300000
161.01	2.29400000	1.12400000
163.13	2.31400000	1.12100000
165.31	2.33400000	1.11000000
167.54	2.41800000	1.10300000
169.84	2.46800000	1.11000000
172.19	2.52300000	1.11800000
174.62	2.59200000	1.11800000
177.11	2.68200000	1.10900000
179.68	2.82000000	1.09300000
182.32	2.91600000	1.05400000
185.05	2.95200000	0.92600000
187.85	2.94700000	0.75500000
190.74	2.89100000	0.59000000
193.72	2.80100000	0.42700000
196.79	2.68200000	0.27600000
199.97	2.62800000	0.18600000
203.25	2.58300000	0.24900000
206.63	2.65200000	0.27600000
210.14	2.72600000	0.12900000
213.76	2.63200000	0.01130000
217.51	2.48300000	0.00008740
221.39	2.36000000	0.00007670
225.42	2.31500000	0.00000949
229.59	2.26600000	0.00000229
233.93	2.23300000	0.00000105
238.42	2.19900000	0.00000076
243.10	2.17600000	0.00000000
247.96	2.15500000	0.00000000
253.02	2.12700000	0.00000000
258.29	2.11500000	0.00000000
263.79	2.10600000	0.00000000
269.52	2.09600000	0.00000000
275.51	2.08500000	0.00000000
281.77	2.07300000	0.00000000
288.33	2.06200000	0.00000000
295.19	2.05200000	0.00000000
302.39	2.04200000	0.00000000
309.95	2.03400000	0.00000000
317.90	2.02500000	0.00000000
326.26	2.01700000	0.00000000
335.08	2.01000000	0.00000000
344.39	2.00400000	0.00000000
354.23	1.99800000	0.00000000
364.65	1.99200000	0.00000000
375.70	1.98500000	0.00000000
387.44	1.97800000	0.00000000
399.94	1.97100000	0.00000000
413.27	1.96400000	0.00000000
427.52	1.95900000	0.00000000
442.79	1.95300000	0.00000000
459.19	1.94800000	0.00000000
476.85	1.94400000	0.00000000
495.92	1.94000000	0.00000000
499.92	1.93900000	0.00000000
512.31	1.93800000	0.00000000
516.58	1.93800000	0.00000000
525.34	1.93700000	0.00000000
539.04	1.93600000	0.00000000
541.40	1.93600000	0.00000000
555.96	1.93500000	0.00000000
563.54	1.93400000	0.00000000
571.34	1.93300000	0.00000000
587.58	1.93200000	0.00000000
590.38	1.93200000	0.00000000
604.78	1.93100000	0.00000000
619.90	1.93000000	0.00000000
999.84	1.90300000	0.00000000
1020.41	1.90200000	0.00000000
1041.85	1.90100000	0.00000000
1064.21	1.90100000	0.00000000
1086.59	1.90000000	0.00000000
1110.93	1.90000000	0.00000000
1136.39	1.89900000	0.00000000
1163.04	1.89800000	0.00000000
1190.97	1.89800000	0.00000000
1219.08	1.89700000	0.00000000
1249.92	1.89600000	0.00000000
1281.98	1.89600000	0.00000000
1315.72	1.89500000	0.00000000
1351.28	1.89500000	0.00000000
1388.82	1.89400000	0.00000000
1428.51	1.89300000	0.00000000
1470.53	1.89300000	0.00000000
1515.09	1.89200000	0.00000000
1562.44	1.89100000	0.00000000
1612.85	1.89100000	0.00000000
1666.62	1.89000000	0.00000000
1724.10	1.88900000	0.00000000
1785.68	1.88800000	0.00000000
1851.83	1.88800000	0.00000000
1923.07	1.88700000	0.00000000
2000.00	1.88600000	0.00000000
2040.82	1.88500000	0.00000000
2083.35	1.88500000	0.00000000
2127.68	1.88400000	0.00000000
2173.94	1.88300000	0.00000000
2222.26	1.88300000	0.00000000
2272.78	1.88200000	0.00000000
2325.64	1.88100000	0.00000000
2381.03	1.88100000	0.00000000
2439.11	1.88000000	0.00000000
