; From SOPRA S.A. http://www.sopra-sa.com/indices.htm
; Filename    Symbol               Range (nm)     Description
; ZNSETE7     ZnSe0.3Te0.7        196     1771    Zinc Selenium Telluride (70% Te)    *
; lambda/nm       n         k
196.80	2.23097300	2.48831800
197.19	2.25221600	2.47512700
197.59	2.27299600	2.46122900
197.98	2.29327000	2.44664900
198.38	2.31300200	2.43141100
198.77	2.33215200	2.41554500
199.17	2.35068600	2.39908100
199.57	2.36857200	2.38205400
199.98	2.38577800	2.36450000
200.38	2.40227900	2.34645700
200.79	2.41804700	2.32796700
201.19	2.43306200	2.30907100
201.60	2.44730700	2.28981100
202.01	2.46076700	2.27023100
202.42	2.47342800	2.25037700
202.84	2.48528400	2.23029200
203.25	2.49632900	2.21002200
203.67	2.50656000	2.18961100
204.09	2.51598000	2.16910300
204.51	2.52459200	2.14853900
204.93	2.53240300	2.12796400
205.36	2.53942200	2.10741800
205.78	2.54566300	2.08693800
206.21	2.55113800	2.06656300
206.64	2.55565000	2.04660400
207.07	2.55964200	2.02654700
207.51	2.56292200	2.00669500
207.94	2.56551300	1.98708000
208.38	2.56743600	1.96772800
208.82	2.56871400	1.94866500
209.26	2.56937200	1.92991700
209.70	2.56943400	1.91150200
210.14	2.56892600	1.89344200
210.59	2.56787300	1.87575400
211.04	2.56630100	1.85845400
211.49	2.56423400	1.84155600
211.94	2.56170000	1.82507200
212.39	2.55872200	1.80901300
212.85	2.55532500	1.79338700
213.31	2.55153400	1.77820200
213.77	2.54737400	1.76346600
214.23	2.54286600	1.74918100
214.69	2.53803500	1.73535300
215.16	2.53290200	1.72198400
215.63	2.52748800	1.70907500
216.10	2.52181400	1.69662800
216.57	2.51590000	1.68464200
217.04	2.50976600	1.67311700
217.52	2.50343000	1.66205300
218.00	2.49690800	1.65144500
218.48	2.49022000	1.64129300
218.96	2.48338100	1.63159300
219.44	2.47640500	1.62234200
219.93	2.46930900	1.61353800
220.42	2.46210700	1.60517500
220.91	2.45481100	1.59725000
221.40	2.44743600	1.58975900
221.90	2.43999300	1.58269800
222.39	2.43249400	1.57606300
222.89	2.42495000	1.56984900
223.40	2.41737200	1.56405200
223.90	2.40977100	1.55866800
224.41	2.40215500	1.55369200
224.92	2.39453500	1.54912200
225.43	2.38691900	1.54495200
225.94	2.37931700	1.54117900
226.46	2.37173500	1.53780000
226.98	2.36418300	1.53481000
227.50	2.35666800	1.53220800
228.02	2.34919800	1.52998900
228.54	2.34178000	1.52815100
229.07	2.33442100	1.52669200
229.60	2.32712800	1.52561000
230.13	2.31990900	1.52490100
230.67	2.31276900	1.52456600
231.21	2.30571700	1.52460100
231.75	2.29875900	1.52500700
232.29	2.29190300	1.52578100
232.84	2.28515400	1.52692400
233.38	2.27852100	1.52843600
233.93	2.27201200	1.53031500
234.49	2.26563300	1.53256300
235.04	2.25939200	1.53518000
235.60	2.25330000	1.53816600
236.16	2.24736300	1.54152400
236.73	2.24159100	1.54525300
237.29	2.23599400	1.54935500
237.86	2.23058100	1.55383300
238.43	2.22536400	1.55868700
239.01	2.22035500	1.56392100
239.58	2.21556400	1.56953500
240.16	2.21100600	1.57553200
240.75	2.20669400	1.58191500
241.33	2.20264300	1.58868400
241.92	2.19886900	1.59584100
242.51	2.19538900	1.60338900
243.11	2.19222100	1.61132900
243.71	2.18938400	1.61966000
244.31	2.18689800	1.62838500
244.91	2.18478700	1.63750100
245.52	2.18307200	1.64700700
246.12	2.18178000	1.65690000
246.74	2.18093600	1.66717800
247.35	2.18056900	1.67783500
247.97	2.18070800	1.68886300
248.59	2.18138500	1.70025200
249.22	2.18263100	1.71199300
249.84	2.18448000	1.72406900
250.48	2.18696800	1.73646400
251.11	2.19013100	1.74915700
251.75	2.19400600	1.76212300
252.39	2.19863200	1.77533400
253.03	2.20404300	1.78875500
253.68	2.21027900	1.80234800
254.33	2.21737700	1.81607100
254.98	2.22536900	1.82987100
255.64	2.23428800	1.84369500
256.30	2.24416400	1.85747900
256.96	2.25501900	1.87115800
257.63	2.26687400	1.88465600
258.30	2.27973900	1.89789300
258.98	2.29361900	1.91078600
259.65	2.30850800	1.92324300
260.34	2.32438900	1.93517200
261.02	2.34123500	1.94647900
261.71	2.35900300	1.95706600
262.40	2.37763800	1.96684100
263.10	2.39706800	1.97571200
263.80	2.41721000	1.98359900
264.50	2.43796400	1.99042700
265.21	2.45921500	1.99613600
265.92	2.48084000	2.00068300
266.63	2.50270400	2.00404100
267.35	2.52449700	2.00714500
268.08	2.54642700	2.00815500
268.80	2.56817500	2.00803600
269.53	2.58960800	2.00685700
270.27	2.61060500	2.00470800
271.01	2.63106500	2.00170100
271.75	2.65090700	1.99796600
272.49	2.67007200	1.99364600
273.25	2.68853300	1.98889200
274.00	2.70628700	1.98385900
274.76	2.72336500	1.97869800
275.52	2.73982200	1.97355300
276.29	2.75574000	1.96855600
277.06	2.77122700	1.96381800
277.84	2.78640700	1.95943200
278.62	2.80142200	1.95546500
279.40	2.81642400	1.95195700
280.19	2.83157200	1.94892100
280.99	2.84702700	1.94634000
281.78	2.86294700	1.94417100
282.59	2.87948200	1.94234000
283.39	2.89677200	1.94074900
284.21	2.91494300	1.93927200
285.02	2.93409700	1.93776500
285.84	2.95431800	1.93605900
286.67	2.97566100	1.93397300
287.50	2.99815600	1.93131100
288.34	3.02179800	1.92787000
289.18	3.04655100	1.92344100
290.02	3.07234300	1.91782000
290.87	3.09907100	1.91080700
291.73	3.12659700	1.90221800
292.59	3.15474800	1.89188700
293.46	3.18332800	1.87967200
294.33	3.21211000	1.86546200
295.20	3.24085000	1.84918500
296.08	3.26929300	1.83080000
296.97	3.29717400	1.81031400
297.86	3.32423300	1.78777300
298.76	3.35021900	1.76326600
299.66	3.37489700	1.73691600
300.57	3.39805800	1.70888400
301.48	3.41952000	1.67935900
302.40	3.43913600	1.64855100
303.33	3.45679400	1.61668600
304.26	3.47242000	1.58399600
305.19	3.48597600	1.55071700
306.14	3.49745800	1.51707700
307.08	3.50689400	1.48329500
308.04	3.51433700	1.44957600
309.00	3.51986500	1.41610500
309.96	3.52357400	1.38304400
310.93	3.52557400	1.35054100
311.91	3.52598400	1.31871600
312.90	3.52492900	1.28767000
313.89	3.52253800	1.25748400
314.88	3.51893900	1.22822100
315.89	3.51425500	1.19992600
316.90	3.50785800	1.17233600
317.91	3.50137200	1.14606600
318.93	3.49414600	1.12081600
319.96	3.48628200	1.09658300
321.00	3.47787300	1.07335500
322.04	3.46900600	1.05111100
323.09	3.45975800	1.02983100
324.14	3.45020200	1.00948600
325.21	3.44040200	0.99004500
326.28	3.43041500	0.97147700
327.35	3.42029400	0.95374600
328.44	3.41008400	0.93681700
329.53	3.39982700	0.92065700
330.63	3.38955800	0.90522900
331.73	3.37931000	0.89049800
332.85	3.36911000	0.87643100
333.97	3.35898200	0.86299400
335.10	3.34894800	0.85015400
336.23	3.33902500	0.83788100
337.37	3.32923000	0.82614400
338.53	3.31957600	0.81491500
339.69	3.31007400	0.80416500
340.85	3.30073400	0.79386800
342.03	3.29156300	0.78399900
343.21	3.28256900	0.77453300
344.40	3.27375700	0.76544800
345.60	3.26513000	0.75672200
346.81	3.25669200	0.74833300
348.03	3.24844600	0.74026200
349.25	3.24039200	0.73249100
350.49	3.23253300	0.72500000
351.73	3.22486800	0.71777400
352.98	3.21739700	0.71079600
354.24	3.21012000	0.70405000
355.51	3.20303600	0.69752100
356.79	3.19571300	0.69131500
358.08	3.18899800	0.68518300
359.38	3.18247100	0.67923000
360.68	3.17612900	0.67344200
362.00	3.16997000	0.66780700
363.33	3.16384300	0.66235600
364.66	3.15803700	0.65699700
366.01	3.15206100	0.65175100
367.36	3.14660400	0.64662600
368.73	3.14131400	0.64160200
370.11	3.13618900	0.63667100
371.49	3.13122500	0.63182300
372.89	3.12598500	0.62714900
374.29	3.12132400	0.62244300
375.71	3.11681200	0.61779500
377.14	3.11244300	0.61319700
378.58	3.10821200	0.60864100
380.03	3.10411500	0.60411900
381.49	3.10014400	0.59962400
382.97	3.09629300	0.59514900
384.45	3.09255500	0.59068500
385.95	3.08892100	0.58622700
387.45	3.08538100	0.58176700
388.97	3.08177200	0.57733300
390.50	3.07838300	0.57285300
392.05	3.07504700	0.56835600
393.60	3.07174500	0.56383800
395.17	3.06845500	0.55930000
396.75	3.06514700	0.55474400
398.35	3.06178400	0.55018000
399.95	3.05831800	0.54562600
401.57	3.05468800	0.54111800
403.20	3.05081500	0.53672000
404.85	3.04659400	0.53254600
406.51	3.04189600	0.52880500
408.18	3.03658400	0.52588500
409.87	3.03060400	0.52452900
411.57	3.02391500	0.52673400
413.28	3.01969000	0.53374300
415.01	3.02429700	0.54624400
416.76	3.04566200	0.55309800
418.52	3.07049800	0.53619200
420.29	3.07573900	0.50777900
422.08	3.06730100	0.48649800
423.88	3.05684300	0.47345900
425.70	3.04721200	0.46499000
427.54	3.03894400	0.45893700
429.39	3.03190000	0.45418900
431.25	3.02584800	0.45017600
433.14	3.02058900	0.44659000
435.04	3.01597200	0.44325700
436.95	3.01188300	0.44007100
438.89	3.00823800	0.43696700
440.84	3.00497300	0.43390000
442.80	3.00203700	0.43084000
444.79	2.99939300	0.42776400
446.79	2.99700900	0.42465600
448.82	2.99486100	0.42150000
450.86	2.99292700	0.41828700
452.91	2.99119000	0.41500600
454.99	2.98963500	0.41164700
457.09	2.98824900	0.40820300
459.20	2.98702100	0.40466500
461.34	2.98594000	0.40102600
463.50	2.98499700	0.39727700
465.67	2.98418200	0.39341000
467.87	2.98348700	0.38941700
470.09	2.98290200	0.38528900
472.32	2.98242000	0.38101700
474.58	2.98203100	0.37659200
476.87	2.98172600	0.37200300
479.17	2.98149500	0.36724100
481.50	2.98132600	0.36229300
483.84	2.98120800	0.35714800
486.22	2.98112600	0.35179200
488.61	2.98106300	0.34621300
491.03	2.98100300	0.34039600
493.47	2.98077000	0.33433300
495.94	2.98064400	0.32799200
498.43	2.98043600	0.32136600
500.95	2.98010800	0.31443800
503.49	2.97960600	0.30719200
506.06	2.97841500	0.29964100
508.66	2.97736500	0.29173100
511.28	2.97588400	0.28349300
513.93	2.97382500	0.27495500
516.60	2.97099100	0.26618900
519.31	2.96645500	0.25763700
522.04	2.96108300	0.24912600
524.80	2.95382700	0.24155000
527.60	2.94423100	0.23627700
530.42	2.93243000	0.23608800
533.27	2.92152600	0.24593500
536.15	2.92375700	0.26938300
539.07	2.95887900	0.28946400
542.01	3.01019200	0.26557400
544.99	3.02638000	0.21081100
548.00	3.01196600	0.16699400
551.05	2.98937800	0.13986300
554.12	2.96730600	0.12321800
557.24	2.94757900	0.11243600
560.39	2.92957700	0.10485300
563.57	2.91419100	0.09946000
566.79	2.90037300	0.09533200
570.05	2.88782100	0.09204300
573.34	2.87630100	0.08933400
576.68	2.86563500	0.08704100
580.05	2.85568300	0.08505500
583.46	2.84633800	0.08330100
586.91	2.83751600	0.08172800
590.41	2.82914700	0.08029800
593.94	2.82117800	0.07898400
597.52	2.81356100	0.07776400
601.14	2.80626100	0.07662300
604.81	2.79924400	0.07554800
608.52	2.79248500	0.07453000
612.27	2.78596000	0.07356000
616.08	2.77965000	0.07263300
619.93	2.77353800	0.07174300
623.82	2.76760800	0.07088600
627.77	2.76184800	0.07005900
631.77	2.75624700	0.06925700
635.82	2.75079300	0.06848000
639.92	2.74547800	0.06772400
644.08	2.74029300	0.06698800
648.29	2.73523100	0.06627100
652.55	2.73028500	0.06557000
656.88	2.72545000	0.06488500
661.25	2.72072000	0.06421400
665.69	2.71608900	0.06355700
670.19	2.71155300	0.06291200
674.75	2.70710800	0.06228000
679.37	2.70274900	0.06165900
684.06	2.69847400	0.06104800
688.81	2.69427800	0.06044800
693.62	2.69016000	0.05985700
698.51	2.68611500	0.05927500
703.46	2.68214100	0.05870300
708.49	2.67823600	0.05813800
713.58	2.67439700	0.05758200
718.75	2.67062100	0.05703300
724.00	2.66690800	0.05649200
729.32	2.66325500	0.05595700
734.73	2.65965900	0.05543000
740.21	2.65612100	0.05490900
745.78	2.65263600	0.05439500
751.43	2.64920500	0.05388700
757.16	2.64582600	0.05338500
762.99	2.64249600	0.05288800
768.90	2.63921600	0.05239800
774.91	2.63598300	0.05191200
781.01	2.63279700	0.05143200
787.21	2.62965700	0.05095800
793.51	2.62656000	0.05048800
799.90	2.62308400	0.04998300
806.41	2.62007400	0.04952300
813.02	2.61710500	0.04906800
819.74	2.61417700	0.04861800
826.57	2.61128900	0.04817200
833.51	2.60843900	0.04773000
840.58	2.60562600	0.04729200
847.76	2.60285100	0.04685900
855.07	2.60011200	0.04642900
862.51	2.59740900	0.04600300
870.07	2.59474100	0.04558200
877.77	2.59210700	0.04516400
885.61	2.58950700	0.04474900
893.59	2.58676000	0.04433700
901.71	2.58422700	0.04393000
909.98	2.58172700	0.04352600
918.41	2.57925700	0.04312600
926.99	2.57681900	0.04272900
935.74	2.57441000	0.04233500
944.65	2.57203200	0.04194500
953.73	2.56968200	0.04155800
962.99	2.56736200	0.04117300
972.43	2.56507000	0.04079200
982.06	2.56280600	0.04041400
991.88	2.56003500	0.04003300
1001.90	2.55783100	0.03966100
1012.12	2.55565400	0.03929100
1022.56	2.55350400	0.03892500
1033.21	2.55137900	0.03856000
1044.09	2.54927900	0.03819900
1055.19	2.54720500	0.03784000
1066.54	2.54515600	0.03748400
1078.13	2.54313100	0.03713000
1089.98	2.54113100	0.03677900
1102.09	2.53915400	0.03643000
1114.47	2.53720100	0.03608300
1127.14	2.53527100	0.03573900
1140.09	2.53336500	0.03539700
1153.35	2.53148100	0.03505800
1166.92	2.52962000	0.03472000
1180.81	2.52778100	0.03438500
1195.04	2.52596400	0.03405200
1209.61	2.52416800	0.03372100
1224.55	2.52239400	0.03339300
1239.85	2.52064200	0.03306600
1255.55	2.51891000	0.03274100
1271.64	2.51720000	0.03241800
1288.16	2.51550900	0.03209700
1305.11	2.51384000	0.03177900
1322.51	2.51219000	0.03146200
1340.38	2.51056100	0.03114600
1358.74	2.50895100	0.03083300
1377.61	2.50736100	0.03052200
1397.02	2.50579000	0.03021200
1416.97	2.50423900	0.02990400
1437.51	2.50270700	0.02959700
1458.65	2.50119300	0.02929300
1480.42	2.49969900	0.02899000
1502.85	2.49822200	0.02868900
1525.97	2.49676500	0.02838900
1549.81	2.49532500	0.02809100
1574.41	2.49390400	0.02779400
1599.81	2.49250000	0.02749900
1626.04	2.49111500	0.02720500
1653.14	2.48974700	0.02691300
1681.16	2.48839600	0.02662300
1710.14	2.48706300	0.02633300
1740.14	2.48574700	0.02604600
1771.22	2.48444800	0.02575900
